raman   n
-2184.52	-2.05
-2181.51	-2.05
-2178.50	-2.05
-2175.49	-53.25
-2172.49	18.43
-2169.48	-38.91
-2166.48	18.43
-2163.48	14.34
-2160.47	106.49
-2157.47	57.34
-2154.47	-131.07
-2151.48	-155.65
-2148.48	30.72
-2145.49	-18.43
-2142.49	-65.53
-2139.50	79.87
-2136.51	-67.58
-2133.52	-47.10
-2130.53	8.19
-2127.54	2.05
-2124.55	65.53
-2121.57	106.49
-2118.58	36.86
-2115.60	143.36
-2112.62	88.06
-2109.64	-14.34
-2106.66	139.26
-2103.68	36.86
-2100.70	124.93
-2097.73	43.01
-2094.75	47.10
-2091.78	10.24
-2088.81	-4.10
-2085.83	16.38
-2082.86	79.87
-2079.90	24.58
-2076.93	-34.82
-2073.96	-55.30
-2071.00	145.41
-2068.03	-4.10
-2065.07	-2.05
-2062.11	79.87
-2059.15	-2.05
-2056.19	198.65
-2053.23	116.73
-2050.27	59.39
-2047.32	45.06
-2044.36	10.24
-2041.41	14.34
-2038.46	-4.10
-2035.51	-49.15
-2032.56	126.97
-2029.61	12.29
-2026.66	-112.64
-2023.72	-6.14
-2020.77	161.79
-2017.83	124.93
-2014.88	69.63
-2011.94	83.97
-2009.00	178.17
-2006.06	110.59
-2003.13	86.01
-2000.19	-14.34
-1997.25	-22.53
-1994.32	8.19
-1991.39	124.93
-1988.45	12.29
-1985.52	83.97
-1982.59	-12.29
-1979.67	40.96
-1976.74	6.14
-1973.81	200.70
-1970.89	86.01
-1967.96	77.82
-1965.04	51.20
-1962.12	12.29
-1959.20	92.16
-1956.28	69.63
-1953.36	55.30
-1950.45	45.06
-1947.53	28.67
-1944.62	14.34
-1941.70	-38.91
-1938.79	57.34
-1935.88	-49.15
-1932.97	145.41
-1930.06	67.58
-1927.15	-65.53
-1924.25	34.82
-1921.34	40.96
-1918.44	49.15
-1915.54	81.92
-1912.63	67.58
-1909.73	67.58
-1906.83	110.59
-1903.94	122.88
-1901.04	92.16
-1898.14	104.45
-1895.25	67.58
-1892.36	4.10
-1889.46	40.96
-1886.57	102.40
-1883.68	-51.20
-1880.79	163.84
-1877.91	40.96
-1875.02	22.53
-1872.13	67.58
-1869.25	73.73
-1866.37	40.96
-1863.48	51.20
-1860.60	43.01
-1857.72	-75.77
-1854.84	131.07
-1851.97	-4.10
-1849.09	-10.24
-1846.22	92.16
-1843.34	86.01
-1840.47	116.73
-1837.60	47.10
-1834.73	102.40
-1831.86	118.78
-1828.99	75.77
-1826.12	106.49
-1823.26	-30.72
-1820.39	126.97
-1817.53	73.73
-1814.67	167.93
-1811.80	8.19
-1808.94	-98.30
-1806.08	100.35
-1803.23	126.97
-1800.37	32.77
-1797.51	8.19
-1794.66	-8.19
-1791.81	-194.56
-1788.95	-22.53
-1786.10	18.43
-1783.25	47.10
-1780.40	43.01
-1777.56	120.83
-1774.71	59.39
-1771.86	-47.10
-1769.02	110.59
-1766.18	26.62
-1763.33	88.06
-1760.49	159.74
-1757.65	108.54
-1754.81	28.67
-1751.98	-24.58
-1749.14	-12.29
-1746.30	59.39
-1743.47	169.98
-1740.64	174.08
-1737.81	49.15
-1734.97	14.34
-1732.14	208.89
-1729.32	100.35
-1726.49	-16.38
-1723.66	67.58
-1720.84	180.22
-1718.01	124.93
-1715.19	202.75
-1712.37	92.16
-1709.55	69.63
-1706.73	86.01
-1703.91	102.40
-1701.09	124.93
-1698.27	141.31
-1695.46	-6.14
-1692.65	212.99
-1689.83	53.25
-1687.02	0.00
-1684.21	59.39
-1681.40	90.11
-1678.59	30.72
-1675.78	67.58
-1672.98	-24.58
-1670.17	186.37
-1667.37	184.32
-1664.56	100.35
-1661.76	151.55
-1658.96	22.53
-1656.16	36.86
-1653.36	210.94
-1650.57	65.53
-1647.77	55.30
-1644.97	-12.29
-1642.18	-8.19
-1639.39	108.54
-1636.60	18.43
-1633.80	-55.30
-1631.01	30.72
-1628.23	63.49
-1625.44	-63.49
-1622.65	-69.63
-1619.87	47.10
-1617.08	-6.14
-1614.30	57.34
-1611.52	32.77
-1608.74	-20.48
-1605.96	112.64
-1603.18	204.80
-1600.40	57.34
-1597.62	65.53
-1594.85	131.07
-1592.07	-98.30
-1589.30	4.10
-1586.53	69.63
-1583.76	71.68
-1580.99	-26.62
-1578.22	-10.24
-1575.45	169.98
-1572.68	47.10
-1569.92	-8.19
-1567.15	110.59
-1564.39	-51.20
-1561.63	112.64
-1558.86	131.07
-1556.10	118.78
-1553.34	126.97
-1550.59	-40.96
-1547.83	104.45
-1545.07	135.17
-1542.32	94.21
-1539.56	65.54
-1536.81	90.11
-1534.06	-110.59
-1531.31	102.40
-1528.56	131.07
-1525.81	61.44
-1523.06	114.69
-1520.32	116.73
-1517.57	32.77
-1514.83	100.35
-1512.09	192.51
-1509.34	65.53
-1506.60	-73.73
-1503.86	233.47
-1501.12	-137.21
-1498.39	165.89
-1495.65	-53.25
-1492.91	67.58
-1490.18	86.01
-1487.45	-30.72
-1484.71	-2.05
-1481.98	126.97
-1479.25	0.00
-1476.52	57.34
-1473.80	10.24
-1471.07	51.20
-1468.34	112.64
-1465.62	18.43
-1462.89	36.86
-1460.17	114.69
-1457.45	-59.39
-1454.73	94.21
-1452.01	233.47
-1449.29	217.08
-1446.57	-69.63
-1443.86	63.49
-1441.14	-26.62
-1438.43	88.06
-1435.71	-12.29
-1433.00	147.45
-1430.29	6.14
-1427.58	-16.38
-1424.87	-14.34
-1422.16	24.58
-1419.46	182.27
-1416.75	-34.82
-1414.05	40.96
-1411.34	212.99
-1408.64	176.13
-1405.94	18.43
-1403.24	6.14
-1400.54	-98.30
-1397.84	-1429.48
-1395.14	-30.72
-1392.45	149.50
-1389.75	32.77
-1387.06	147.45
-1384.36	71.68
-1381.67	-51.20
-1378.98	24.58
-1376.29	81.92
-1373.60	40.96
-1370.91	61.44
-1368.23	137.21
-1365.54	-2.05
-1362.86	8.19
-1360.17	155.65
-1357.49	147.45
-1354.81	-30.72
-1352.13	67.58
-1349.45	49.15
-1346.77	180.22
-1344.09	303.10
-1341.42	22.53
-1338.74	155.65
-1336.07	135.17
-1333.39	65.53
-1330.72	-38.91
-1328.05	67.58
-1325.38	106.49
-1322.71	180.22
-1320.04	90.11
-1317.37	-63.49
-1314.71	94.21
-1312.04	30.72
-1309.38	126.97
-1306.72	131.07
-1304.05	-10.24
-1301.39	71.68
-1298.73	57.34
-1296.08	-34.82
-1293.42	53.25
-1290.76	24.58
-1288.10	18.43
-1285.45	145.41
-1282.80	227.32
-1280.14	133.12
-1277.49	-6.14
-1274.84	-8.19
-1272.19	131.07
-1269.54	-26.62
-1266.90	153.60
-1264.25	104.45
-1261.60	86.01
-1258.96	155.65
-1256.32	-24.58
-1253.67	217.08
-1251.03	153.60
-1248.39	40.96
-1245.75	40.96
-1243.11	126.97
-1240.48	182.27
-1237.84	135.17
-1235.20	92.16
-1232.57	10.24
-1229.94	-55.30
-1227.31	69.63
-1224.67	77.82
-1222.04	2.05
-1219.41	16.38
-1216.79	139.26
-1214.16	79.87
-1211.53	-135.17
-1208.91	88.06
-1206.28	126.97
-1203.66	116.73
-1201.04	167.93
-1198.42	38.91
-1195.80	-38.91
-1193.18	135.17
-1190.56	47.10
-1187.94	163.84
-1185.33	182.27
-1182.71	102.40
-1180.10	149.50
-1177.49	-51.20
-1174.87	8.19
-1172.26	102.40
-1169.65	77.82
-1167.04	98.30
-1164.44	90.11
-1161.83	43.01
-1159.22	116.73
-1156.62	0.00
-1154.01	86.01
-1151.41	147.45
-1148.81	30.72
-1146.21	20.48
-1143.61	-16.38
-1141.01	88.06
-1138.41	55.30
-1135.81	184.32
-1133.22	49.15
-1130.62	129.02
-1128.03	116.73
-1125.44	94.21
-1122.84	81.92
-1120.25	73.73
-1117.66	118.78
-1115.07	0.00
-1112.49	200.70
-1109.90	18.43
-1107.31	20.48
-1104.73	16.38
-1102.14	167.93
-1099.56	67.58
-1096.98	32.77
-1094.40	51.20
-1091.82	-69.63
-1089.24	165.89
-1086.66	204.80
-1084.08	118.78
-1081.51	145.41
-1078.93	59.39
-1076.36	14.34
-1073.79	239.61
-1071.21	20.48
-1068.64	129.02
-1066.07	92.16
-1063.50	55.30
-1060.93	133.12
-1058.37	116.73
-1055.80	178.17
-1053.24	69.63
-1050.67	114.69
-1048.11	180.22
-1045.55	69.63
-1042.99	307.20
-1040.42	38.91
-1037.87	143.36
-1035.31	92.16
-1032.75	55.30
-1030.19	186.37
-1027.64	36.86
-1025.08	116.73
-1022.53	192.51
-1019.98	153.60
-1017.43	141.31
-1014.88	241.66
-1012.33	135.17
-1009.78	251.90
-1007.23	135.17
-1004.68	143.36
-1002.14	-71.68
-999.59	79.87
-997.05	59.39
-994.51	100.35
-991.96	131.07
-989.42	141.31
-986.88	-4.10
-984.34	67.58
-981.81	116.73
-979.27	-30.72
-976.73	2.05
-974.20	16.38
-971.66	114.69
-969.13	30.72
-966.60	182.27
-964.07	155.65
-961.54	4.10
-959.01	172.03
-956.48	157.69
-953.95	239.61
-951.43	167.93
-948.90	98.30
-946.38	92.16
-943.85	139.26
-941.33	202.75
-938.81	114.69
-936.29	217.08
-933.77	61.44
-931.25	188.41
-928.73	47.10
-926.22	30.72
-923.70	149.50
-921.19	151.55
-918.67	235.52
-916.16	159.74
-913.65	73.73
-911.14	159.74
-908.63	247.80
-906.12	276.48
-903.61	276.48
-901.10	286.72
-898.59	141.31
-896.09	141.31
-893.59	153.60
-891.08	251.90
-888.58	92.16
-886.08	145.41
-883.58	192.51
-881.08	208.89
-878.58	206.84
-876.08	184.32
-873.58	219.13
-871.09	108.54
-868.59	131.07
-866.10	266.24
-863.61	110.59
-861.12	26.62
-858.62	202.75
-856.13	43.01
-853.64	188.41
-851.16	184.32
-848.67	81.92
-846.18	135.17
-843.70	98.30
-841.21	196.61
-838.73	180.22
-836.25	212.99
-833.77	163.84
-831.28	243.71
-828.81	100.35
-826.33	161.79
-823.85	157.69
-821.37	225.28
-818.90	163.84
-816.42	147.45
-813.95	57.34
-811.47	190.46
-809.00	-129.02
-806.53	305.15
-804.06	75.77
-801.59	-155.65
-799.12	188.41
-796.65	167.93
-794.19	208.89
-791.72	159.74
-789.26	96.25
-786.79	315.39
-784.33	210.94
-781.87	344.06
-779.41	253.95
-776.95	182.27
-774.49	188.41
-772.03	354.30
-769.57	200.70
-767.12	380.92
-764.66	309.24
-762.21	212.99
-759.75	323.58
-757.30	280.57
-754.85	272.38
-752.40	481.27
-749.95	354.30
-747.50	356.35
-745.05	294.91
-742.60	389.11
-740.16	395.26
-737.71	409.59
-735.27	364.54
-732.82	536.57
-730.38	456.70
-727.94	661.49
-725.50	643.06
-723.06	759.80
-720.62	970.74
-718.18	1083.38
-715.74	1196.01
-713.31	1376.23
-710.87	1556.46
-708.44	1527.78
-706.01	1271.79
-703.57	1613.80
-701.14	1472.49
-698.71	1212.40
-696.28	1282.03
-693.85	1191.92
-691.42	948.21
-689.00	919.54
-686.57	864.24
-684.15	722.93
-681.72	444.41
-679.30	516.09
-676.88	475.13
-674.45	528.38
-672.03	372.73
-669.61	444.41
-667.20	372.73
-664.78	321.53
-662.36	301.05
-659.94	448.51
-657.53	274.43
-655.12	225.28
-652.70	425.98
-650.29	313.34
-647.88	114.69
-645.47	352.25
-643.06	382.97
-640.65	96.25
-638.24	288.76
-635.83	442.36
-633.43	311.29
-631.02	167.93
-628.62	382.97
-626.22	296.96
-623.81	372.73
-621.41	352.25
-619.01	376.83
-616.61	458.74
-614.21	303.10
-611.81	372.73
-609.42	380.92
-607.02	450.55
-604.63	366.59
-602.23	354.30
-599.84	270.33
-597.45	221.18
-595.05	434.17
-592.66	272.38
-590.27	495.61
-587.88	456.70
-585.50	350.20
-583.11	323.58
-580.72	370.68
-578.34	450.55
-575.95	292.86
-573.57	489.46
-571.19	389.11
-568.80	276.48
-566.42	342.01
-564.04	405.50
-561.66	339.96
-559.29	335.87
-556.91	358.39
-554.53	487.42
-552.16	337.91
-549.78	464.89
-547.41	227.32
-545.03	403.45
-542.66	356.35
-540.29	315.39
-537.92	468.98
-535.55	319.48
-533.18	401.40
-530.81	307.20
-528.45	595.96
-526.08	471.03
-523.72	186.37
-521.35	567.29
-518.99	477.18
-516.63	376.83
-514.27	274.43
-511.90	385.02
-509.54	479.22
-507.19	405.50
-504.83	376.83
-502.47	507.90
-500.11	690.17
-497.76	647.16
-495.40	370.68
-493.05	507.90
-490.70	491.51
-488.35	313.34
-486.00	569.34
-483.65	634.87
-481.30	518.14
-478.95	583.67
-476.60	466.94
-474.25	555.00
-471.91	397.31
-469.56	483.32
-467.22	428.03
-464.88	675.83
-462.53	284.67
-460.19	577.53
-457.85	450.55
-455.51	434.17
-453.17	419.83
-450.84	559.10
-448.50	657.40
-446.16	516.09
-443.83	514.04
-441.49	542.71
-439.16	530.42
-436.83	438.27
-434.50	325.63
-432.16	335.87
-429.83	430.07
-427.50	288.76
-425.18	360.44
-422.85	186.37
-420.52	251.90
-418.20	366.59
-415.87	237.56
-413.55	301.05
-411.22	243.71
-408.90	237.56
-406.58	219.13
-404.26	231.42
-401.94	172.03
-399.62	169.98
-397.30	172.03
-394.99	86.01
-392.67	208.89
-390.35	217.08
-388.04	104.45
-385.73	14.34
-383.41	157.69
-381.10	4.10
-378.79	18.43
-376.48	73.73
-374.17	157.69
-371.86	-112.64
-369.55	69.63
-367.25	40.96
-364.94	61.44
-362.64	163.84
-360.33	-88.06
-358.03	-65.53
-355.73	190.46
-353.42	-45.06
-351.12	-71.68
-348.82	204.80
-346.52	108.54
-344.23	-14.34
-341.93	67.58
-339.63	165.89
-337.34	88.06
-335.04	155.65
-332.75	92.16
-330.45	114.69
-328.16	53.25
-325.87	-10.24
-323.58	-77.82
-321.29	192.51
-319.00	-40.96
-316.71	98.30
-314.42	24.58
-312.14	167.93
-309.85	-10.24
-307.57	-51.20
-305.28	67.58
-303.00	157.69
-300.72	24.58
-298.44	45.06
-296.16	81.92
-293.88	-47.10
-291.60	59.39
-289.32	6.14
-287.04	77.82
-284.77	55.30
-282.49	47.10
-280.22	4.10
-277.94	133.12
-275.67	38.91
-273.40	73.73
-271.13	-20.48
-268.85	69.63
-266.59	69.63
-264.32	38.91
-262.05	88.06
-259.78	14.34
-257.51	86.01
-255.25	63.49
-252.98	-51.20
-250.72	10.24
-248.46	18.43
-246.20	12.29
-243.93	147.45
-241.67	149.50
-239.41	71.68
-237.16	157.69
-234.90	34.82
-232.64	-73.73
-230.38	-6.14
-228.13	-90.11
-225.87	106.49
-223.62	18.43
-221.37	90.11
-219.11	108.54
-216.86	86.01
-214.61	-38.91
-212.36	2.05
-210.11	-43.01
-207.87	129.02
-205.62	135.17
-203.37	75.77
-201.13	-36.86
-198.88	77.82
-196.64	-20.48
-194.39	67.58
-192.15	137.21
-189.91	114.69
-187.67	108.54
-185.43	-20.48
-183.19	-61.44
-180.95	129.02
-178.72	118.78
-176.48	-71.68
-174.24	276.48
-172.01	83.97
-169.77	-36.86
-167.54	92.16
-165.31	28.67
-163.08	67.58
-160.85	-4.10
-158.62	167.93
-156.39	108.54
-154.16	106.49
-151.93	163.84
-149.70	98.30
-147.48	-69.63
-145.25	-73.73
-143.03	71.68
-140.81	153.60
-138.58	55.30
-136.36	38.91
-134.14	100.35
-131.92	110.59
-129.70	69.63
-127.48	81.92
-125.26	8.19
-123.05	159.74
-120.83	32.77
-118.62	112.64
-116.40	38.91
-114.19	43.01
-111.97	126.97
-109.76	108.54
-107.55	57.34
-105.34	63.49
-103.13	55.30
-100.92	69.63
-98.71	133.12
-96.51	241.66
-94.30	126.97
-92.09	147.45
-89.89	-14.34
-87.69	172.03
-85.48	86.01
-83.28	63.49
-81.08	137.21
-78.88	200.70
-76.68	217.08
-74.48	229.37
-72.28	241.66
-70.08	186.37
-67.88	147.45
-65.69	45.06
-63.49	129.02
-61.30	210.94
-59.11	145.41
-56.91	309.24
-54.72	286.72
-52.53	194.56
-50.34	321.53
-48.15	305.15
-45.96	239.61
-43.77	393.21
-41.59	223.23
-39.40	268.28
-37.21	294.91
-35.03	436.22
-32.84	454.65
-30.66	468.98
-28.48	612.34
-26.30	948.21
-24.12	1120.24
-21.94	2357.21
-19.76	4190.14
-17.58	8378.24
-15.40	15197.98
-13.22	26738.28
-11.05	39214.51
-8.87	47596.84
-6.70	51987.69
-4.52	61944.91
-2.35	60564.58
-0.18	62823.49
1.99	62501.96
4.16	61727.83
6.33	52280.55
8.50	44236.12
10.67	38432.18
12.84	32097.81
15.00	25775.73
17.17	22175.41
19.33	18271.98
21.50	14343.97
23.66	11427.67
25.83	9191.28
27.99	6729.63
30.15	4485.05
32.31	3039.19
34.47	1964.00
36.63	1273.84
38.79	894.96
40.94	608.25
43.10	352.25
45.25	321.53
47.41	329.72
49.56	161.79
51.72	311.29
53.87	258.04
56.02	329.72
58.17	196.61
60.32	229.37
62.47	206.84
64.62	90.11
66.77	126.97
68.92	210.94
71.06	270.33
73.21	51.20
75.35	55.30
77.50	163.84
79.64	278.52
81.78	20.48
83.92	106.49
86.06	38.91
88.20	290.81
90.34	114.69
92.48	114.69
94.62	278.52
96.76	143.36
98.89	174.08
101.03	253.95
103.16	215.04
105.30	342.01
107.43	419.83
109.56	403.45
111.69	524.28
113.82	452.60
115.95	534.52
118.08	626.68
120.21	638.97
122.34	555.00
124.47	694.26
126.59	946.16
128.72	772.08
130.84	935.92
132.97	899.06
135.09	1001.46
137.21	1122.29
139.33	892.91
141.45	1116.14
143.57	1376.24
145.69	1382.38
147.81	1394.67
149.93	1603.56
152.05	1617.90
154.16	1665.00
156.28	1646.57
158.39	1705.96
160.51	1726.44
162.62	1820.64
164.73	1972.19
166.85	1966.05
168.96	1980.39
171.07	1773.54
173.18	2084.83
175.28	1886.18
177.39	2039.78
179.50	2023.39
181.61	2021.35
183.71	2031.58
185.82	2045.92
187.92	2232.29
190.02	2203.61
192.13	2148.32
194.23	2215.90
196.33	2361.31
198.43	2316.25
200.53	2148.32
202.63	2125.79
204.72	2346.97
206.82	2111.46
208.92	2187.23
211.01	2076.64
213.11	2283.49
215.20	2285.53
217.30	2389.98
219.39	2465.75
221.48	2437.08
223.57	2396.12
225.66	2349.02
227.75	2484.19
229.84	2512.86
231.93	2512.86
234.02	2506.71
236.10	2551.77
238.19	2668.50
240.28	2633.69
242.36	2824.15
244.44	2877.40
246.53	3141.58
248.61	2842.58
250.69	3102.67
252.77	3141.58
254.85	3170.26
256.93	3555.27
259.01	3659.72
261.09	3962.82
263.16	4306.88
265.24	5191.60
267.32	6299.55
269.39	7743.37
271.46	10110.82
273.54	12705.60
275.61	15994.64
277.68	18591.46
279.75	21126.85
281.82	22009.52
283.89	24161.94
285.96	23568.02
288.03	22970.02
290.10	21358.27
292.16	18927.33
294.23	16709.38
296.29	14911.26
298.36	13184.82
300.42	11018.07
302.49	9713.52
304.55	7833.48
306.61	7268.24
308.67	5760.94
310.73	5156.79
312.79	4595.64
314.85	4253.63
316.90	3696.58
318.96	3608.52
321.02	3293.13
323.07	3104.72
325.13	3020.75
327.18	2854.87
329.24	2881.49
331.29	2570.20
333.34	2947.03
335.39	2471.90
337.44	2910.16
339.49	2611.16
341.54	2684.89
343.59	2643.93
345.64	2678.74
347.68	2394.08
349.73	2443.23
351.77	2529.24
353.82	2383.84
355.86	2598.87
357.90	2502.62
359.95	2559.96
361.99	2312.16
364.03	2488.28
366.07	2600.92
368.11	2349.02
370.15	2539.48
372.19	2453.47
374.22	2330.59
376.26	2289.63
378.29	2600.92
380.33	2344.92
382.36	2414.56
384.40	2367.45
386.43	2488.28
388.46	2439.13
390.49	2349.02
392.52	2303.96
394.55	2557.91
396.58	2410.46
398.61	2471.90
400.64	2535.39
402.67	2330.59
404.69	2277.34
406.72	2635.74
408.74	2512.86
410.77	2500.57
412.79	2510.81
414.81	2469.85
416.84	2447.32
418.86	2361.31
420.88	2701.27
422.90	2469.85
424.92	2310.11
426.94	2488.28
428.95	2559.96
430.97	2469.85
432.99	2523.10
435.00	2584.54
437.02	2369.50
439.03	2686.94
441.04	2559.96
443.06	2484.19
445.07	2580.44
447.08	2486.23
449.09	2400.22
451.10	2582.49
453.11	2426.84
455.12	2449.37
457.13	2582.49
459.13	2582.49
461.14	2500.57
463.14	2504.67
465.15	2287.58
467.15	2508.76
469.16	2580.44
471.16	2566.10
473.16	2529.24
475.16	2637.78
477.16	2572.25
479.16	2611.16
481.16	2512.86
483.16	2486.23
485.16	2514.91
487.15	2666.46
489.15	2471.90
491.15	2580.44
493.14	2478.04
495.14	2633.69
497.13	2439.13
499.12	2637.78
501.11	2443.23
503.11	2684.89
505.10	2596.82
507.09	2437.08
509.07	2639.83
511.06	2598.87
513.05	2529.24
515.04	2633.69
517.02	2709.46
519.01	2721.75
521.00	2293.73
522.98	2656.22
524.96	2746.33
526.95	2525.15
528.93	2594.78
530.91	2576.34
532.89	2643.93
534.87	2582.49
536.85	2588.63
538.83	2688.98
540.81	2594.78
542.78	2729.94
544.76	2811.86
546.74	2658.26
548.71	2648.02
550.69	2590.68
552.66	2719.70
554.63	2668.50
556.60	2697.17
558.58	2645.98
560.55	2891.73
562.52	2807.77
564.49	2828.24
566.46	2887.64
568.42	2672.60
570.39	2725.85
572.36	2719.70
574.32	2820.05
576.29	2639.83
578.25	2922.45
580.22	2506.71
582.18	2639.83
584.14	2822.10
586.11	2863.06
588.07	2623.45
590.03	2701.27
591.99	2652.12
593.95	2582.49
595.90	2828.24
597.86	2615.26
599.82	2668.50
601.78	2766.81
603.73	2713.56
605.69	2820.05
607.64	2676.70
609.59	2731.99
611.55	2709.46
613.50	2764.76
615.45	2772.95
617.40	2738.13
619.35	2777.05
621.30	2930.64
623.25	2961.36
625.20	2850.77
627.15	2975.70
629.09	2920.40
631.04	2846.68
632.98	3180.50
634.93	2961.36
636.87	3002.32
638.82	2891.73
640.76	2940.88
642.70	3018.71
644.64	3174.35
646.58	3030.99
648.52	3131.34
650.46	3135.44
652.40	3219.41
654.34	3190.74
656.27	3219.41
658.21	3346.38
660.15	3395.53
662.08	3526.60
664.02	3547.08
665.95	3667.91
667.88	3643.34
669.82	3710.92
671.75	4159.42
673.68	4175.81
675.61	4579.26
677.54	4687.80
679.47	5328.81
681.40	6133.67
683.32	7141.27
685.25	9029.49
687.18	11706.19
689.10	14862.11
691.03	20231.88
692.95	26170.99
694.87	31866.39
696.80	38120.89
698.72	42786.16
700.64	46210.37
702.56	48827.67
704.48	49437.97
706.40	47154.48
708.32	43763.04
710.24	38526.39
712.16	33269.25
714.07	28538.44
715.99	24503.95
717.90	20948.67
719.82	18317.03
721.73	15771.41
723.65	13834.03
725.56	11923.27
727.47	10782.56
729.38	10125.16
731.29	9047.93
733.20	8767.35
735.11	8945.53
737.02	8689.53
738.93	8451.97
740.84	8624.00
742.74	8574.85
744.65	8482.69
746.55	8261.51
748.46	8028.04
750.36	7806.86
752.27	7239.57
754.17	6872.98
756.07	6205.35
757.97	6150.05
759.87	5746.60
761.77	5275.57
763.67	5068.72
765.57	4980.66
767.47	4689.85
769.37	4431.80
771.26	4392.89
773.16	4140.99
775.06	4231.10
776.95	4114.37
778.84	4145.09
780.74	3823.56
782.63	3614.66
784.52	3747.78
786.41	3839.94
788.30	3684.30
790.19	3536.84
792.08	3551.18
793.97	3676.10
795.86	3366.86
797.75	3358.67
799.63	3360.72
801.52	3571.66
803.41	3483.59
805.29	3573.71
807.18	3307.47
809.06	3184.59
810.94	3258.32
812.82	3422.16
814.70	3246.03
816.59	3428.30
818.47	3229.65
820.35	3332.05
822.22	3297.23
824.10	3377.10
825.98	3289.04
827.86	3291.09
829.73	3190.74
831.61	3309.52
833.48	3162.06
835.36	3327.95
837.23	3096.53
839.10	3219.41
840.98	3192.78
842.85	3280.85
844.72	3055.57
846.59	3276.75
848.46	3284.94
850.33	3293.13
852.20	3096.53
854.06	3514.31
855.93	3291.09
857.80	3323.85
859.66	3252.17
861.53	3284.94
863.39	3213.26
865.26	3323.85
867.12	3311.57
868.98	3172.30
870.84	3180.50
872.71	3381.20
874.57	3469.26
876.43	3354.57
878.29	3450.83
880.14	3229.65
882.00	3409.87
883.86	3139.54
885.72	3383.24
887.57	3448.78
889.43	3424.20
891.28	3397.58
893.14	3416.01
894.99	3602.38
896.84	3495.88
898.69	3291.09
900.55	3450.83
902.40	3549.13
904.25	3399.63
906.10	3340.24
907.95	3563.47
909.79	3561.42
911.64	3422.16
913.49	3194.83
915.34	3211.22
917.18	3481.55
919.03	3399.63
920.87	3385.29
922.71	3209.17
924.56	3528.65
926.40	3438.54
928.24	3291.09
930.08	3383.24
931.92	3432.40
933.76	3323.85
935.60	3448.78
937.44	3270.61
939.28	3479.50
941.12	3268.56
942.95	3387.34
944.79	3534.79
946.62	3350.48
948.46	3225.55
950.29	3327.95
952.13	3327.95
953.96	3235.79
955.79	3416.01
957.62	3358.67
959.46	3301.33
961.29	3344.33
963.12	3397.58
964.94	3438.54
966.77	3467.21
968.60	3600.33
970.43	3475.40
972.25	3463.12
974.08	3354.57
975.91	3385.29
977.73	3440.59
979.55	3555.27
981.38	3493.83
983.20	3319.76
985.02	3436.49
986.84	3444.68
988.66	3473.36
990.49	3502.03
992.30	3342.28
994.12	3360.72
995.94	3688.39
997.76	3237.84
999.58	3481.55
1001.39	3362.76
1003.21	3438.54
1005.02	3334.09
1006.84	3364.81
1008.65	3393.48
1010.47	3215.31
1012.28	3364.81
1014.09	3239.89
1015.90	3465.16
1017.71	3397.58
1019.52	3354.57
1021.33	3481.55
1023.14	3373.00
1024.95	3383.24
1026.76	3239.89
1028.56	3254.22
1030.37	3475.40
1032.18	3401.68
1033.98	3342.28
1035.79	3307.47
1037.59	3243.98
1039.39	3301.33
1041.20	3532.75
1043.00	3282.89
1044.80	3299.28
1046.60	3323.85
1048.40	3356.62
1050.20	3389.39
1052.00	3579.85
1053.80	3403.72
1055.59	3217.36
1057.39	3469.26
1059.19	3356.62
1060.98	3442.64
1062.78	3465.16
1064.57	3424.20
1066.37	3307.47
1068.16	3448.78
1069.95	3426.25
1071.75	3387.34
1073.54	3299.28
1075.33	3506.12
1077.12	3514.31
1078.91	3235.79
1080.70	3579.85
1082.48	3254.22
1084.27	3395.53
1086.06	3581.90
1087.85	3422.16
1089.63	3704.78
1091.42	3633.10
1093.20	3467.21
1094.99	3452.88
1096.77	3547.08
1098.55	3569.61
1100.33	3643.34
1102.12	3602.38
1103.90	3448.78
1105.68	3504.07
1107.46	3672.01
1109.24	3553.23
1111.01	3704.78
1112.79	3416.01
1114.57	3659.72
1116.35	3606.47
1118.12	3452.88
1119.90	3862.47
1121.67	3645.38
1123.45	3942.34
1125.22	3471.31
1126.99	3686.34
1128.77	3833.80
1130.54	3786.69
1132.31	3692.49
1134.08	3997.63
1135.85	3958.72
1137.62	3917.76
1139.39	3831.75
1141.15	3901.38
1142.92	4227.01
1144.69	4169.66
1146.46	4329.41
1148.22	4380.61
1149.99	4591.55
1151.75	4747.19
1153.51	4593.59
1155.28	4851.64
1157.04	4878.26
1158.80	4767.67
1160.56	4671.42
1162.32	4767.67
1164.08	4523.96
1165.84	4478.91
1167.60	4188.10
1169.36	4306.88
1171.12	4067.27
1172.88	4224.96
1174.63	3968.96
1176.39	4065.22
1178.14	3878.85
1179.90	3979.20
1181.65	4030.40
1183.41	4102.08
1185.16	4007.87
1186.91	3885.00
1188.66	3889.09
1190.41	3911.62
1192.16	3725.26
1193.91	3659.72
1195.66	3542.99
1197.41	3753.93
1199.16	3733.45
1200.91	3735.50
1202.66	3770.31
1204.40	3624.90
1206.15	3858.37
1207.89	3553.23
1209.64	3534.79
1211.38	3755.97
1213.12	3762.12
1214.87	3891.14
1216.61	3880.90
1218.35	3643.34
1220.09	3665.86
1221.83	3581.90
1223.57	3745.73
1225.31	3692.49
1227.05	3831.75
1228.79	3686.34
1230.52	3741.64
1232.26	3684.30
1234.00	3968.96
1235.73	3577.80
1237.47	3540.94
1239.20	3590.09
1240.94	3551.18
1242.67	3776.45
1244.40	3841.99
1246.13	3766.21
1247.86	3864.52
1249.60	3749.83
1251.33	3663.82
1253.06	3762.12
1254.78	3653.58
1256.51	4079.55
1258.24	3880.90
1259.97	4030.40
1261.69	3839.94
1263.42	4016.07
1265.15	3823.56
1266.87	3780.55
1268.59	3960.77
1270.32	3870.66
1272.04	3841.99
1273.76	3952.58
1275.49	3624.90
1277.21	3774.41
1278.93	3755.97
1280.65	3837.89
1282.37	3649.48
1284.09	3762.12
1285.81	3706.82
1287.52	3657.67
1289.24	3794.89
1290.96	3598.28
1292.67	3798.98
1294.39	3706.82
1296.10	3704.78
1297.82	3813.32
1299.53	3876.80
1301.24	3758.02
1302.96	3841.99
1304.67	3723.21
1306.38	3911.62
1308.09	3770.31
1309.80	3528.65
1311.51	3768.26
1313.22	3553.23
1314.93	3565.51
1316.64	3637.19
1318.34	3573.71
1320.05	3913.67
1321.75	3606.47
1323.46	3684.30
1325.17	3686.34
1326.87	3626.95
1328.57	3794.89
1330.28	3682.25
1331.98	3635.14
1333.68	3719.11
1335.38	3723.21
1337.08	3612.62
1338.78	3917.76
1340.48	3764.17
1342.18	3844.04
1343.88	3676.10
1345.58	3788.74
1347.28	3762.12
1348.97	3801.03
1350.67	3735.50
1352.36	3735.50
1354.06	3907.52
1355.75	3819.46
1357.45	3966.92
1359.14	3862.47
1360.83	3727.30
1362.53	3715.02
1364.22	3803.08
1365.91	3778.50
1367.60	3774.41
1369.29	3960.77
1370.98	3782.60
1372.67	3706.82
1374.35	4001.73
1376.04	4065.22
1377.73	4026.31
1379.41	4020.16
1381.10	4048.83
1382.79	4079.55
1384.47	4011.97
1386.15	4040.64
1387.84	3925.96
1389.52	4190.14
1391.20	3985.35
1392.88	4024.26
1394.57	4188.10
1396.25	4204.48
1397.93	4155.33
1399.61	4329.41
1401.28	4239.30
1402.96	4661.18
1404.64	4573.11
1406.32	4937.65
1407.99	4931.51
1409.67	5105.59
1411.35	5230.51
1413.02	5470.12
1414.70	5492.65
1416.37	5928.87
1418.04	6287.26
1419.71	6492.06
1421.39	6586.27
1423.06	6653.85
1424.73	6461.34
1426.40	6596.51
1428.07	6358.94
1429.74	6225.83
1431.41	5826.47
1433.08	5916.58
1434.74	5496.75
1436.41	5152.69
1438.08	4964.28
1439.74	5128.11
1441.41	4949.94
1443.07	4526.01
1444.74	4327.36
1446.40	4315.07
1448.06	4263.87
1449.72	4364.22
1451.39	4218.82
1453.05	4464.57
1454.71	4536.25
1456.37	4292.54
1458.03	4409.28
1459.69	4052.93
1461.35	4396.99
1463.00	4466.62
1464.66	4134.85
1466.32	4280.25
1467.97	4196.29
1469.63	4241.34
1471.28	4259.78
1472.94	4206.53
1474.59	4216.77
1476.25	3938.24
1477.90	4329.41
1479.55	4054.98
1481.20	3934.15
1482.85	4384.70
1484.50	4093.89
1486.15	4054.98
1487.80	3876.80
1489.45	3915.72
1491.10	3899.33
1492.75	4110.27
1494.40	3901.38
1496.04	3995.59
1497.69	4059.07
1499.33	4349.89
1500.98	4255.68
1502.62	4018.11
1504.27	3987.40
1505.91	4091.84
1507.55	3940.29
1509.19	3760.07
1510.84	3733.45
1512.48	3872.71
1514.12	4061.12
1515.76	3934.15
1517.40	3997.63
1519.04	3987.40
1520.67	3807.17
1522.31	3895.24
1523.95	3876.80
1525.59	4001.73
1527.22	3661.77
1528.86	3874.76
1530.49	3602.38
1532.13	3971.01
1533.76	3921.86
1535.39	3925.96
1537.03	3893.19
1538.66	3805.13
1540.29	3905.48
1541.92	3749.83
1543.55	3827.65
1545.18	3956.68
1546.81	3903.43
1548.44	3940.29
1550.07	3903.43
1551.70	3788.74
1553.32	3893.19
1554.95	4005.83
1556.58	3856.33
1558.20	3993.54
1559.83	3852.23
1561.45	3864.52
1563.07	4065.22
1564.70	3700.68
1566.32	3874.76
1567.94	3774.41
1569.56	3749.83
1571.19	3868.61
1572.81	4106.18
1574.43	3940.29
1576.05	4005.83
1577.66	3919.81
1579.28	3870.66
1580.90	3635.14
1582.52	3676.10
1584.14	3848.13
1585.75	3690.44
1587.37	3954.63
1588.98	3784.65
1590.60	4036.55
1592.21	3821.51
1593.82	3979.20
1595.44	3844.04
1597.05	3921.86
1598.66	3909.57
1600.27	3688.39
1601.88	3790.79
1603.49	3792.84
1605.10	3856.33
1606.71	4036.55
1608.32	3774.41
1609.93	4001.73
1611.54	3706.82
1613.14	4046.79
1614.75	4059.07
1616.36	3780.55
1617.96	3999.68
1619.57	3823.56
1621.17	3712.97
1622.77	3952.58
1624.38	3770.31
1625.98	3774.41
1627.58	3936.20
1629.18	3993.54
1630.78	3866.56
1632.38	4003.78
1633.98	3864.52
1635.58	3850.18
1637.18	3729.35
1638.78	3966.92
1640.38	3854.28
1641.98	4030.40
1643.57	3999.68
1645.17	3766.21
1646.76	3702.73
1648.36	4018.11
1649.95	3925.96
1651.55	3680.20
1653.14	3729.35
1654.73	3960.77
1656.33	3801.03
1657.92	3979.20
1659.51	3946.44
1661.10	3987.40
1662.69	4005.83
1664.28	3784.65
1665.87	3907.52
1667.46	3915.72
1669.05	3930.05
1670.63	3921.86
1672.22	3956.68
1673.81	3895.24
1675.39	3913.67
1676.98	3854.28
1678.56	3573.71
1680.15	3835.85
1681.73	3512.27
1683.31	3798.98
1684.90	3825.61
1686.48	3798.98
1688.06	3885.00
1689.64	4048.83
1691.22	4149.18
1692.80	3962.82
1694.38	3930.05
1695.96	3950.53
1697.54	4097.99
1699.12	4014.02
1700.69	4167.62
1702.27	3946.44
1703.85	4022.21
1705.42	4046.79
1707.00	3717.06
1708.57	3815.37
1710.15	3942.34
1711.72	3696.58
1713.29	3794.89
1714.87	4171.71
1716.44	3919.81
1718.01	4054.98
1719.58	3962.82
1721.15	3850.18
1722.72	3938.24
1724.29	3964.87
1725.86	3764.17
1727.43	3989.44
1729.00	3798.98
1730.56	3852.23
1732.13	3936.20
1733.70	3829.70
1735.26	3981.25
1736.83	4022.21
1738.39	4179.90
1739.96	4077.51
1741.52	4136.90
1743.08	3823.56
1744.65	4022.21
1746.21	3932.10
1747.77	3968.96
1749.33	3837.89
1750.89	4071.36
1752.45	3975.11
1754.01	3876.80
1755.57	4007.87
1757.13	3878.85
1758.69	3860.42
1760.24	3897.28
1761.80	3821.51
1763.36	3966.92
1764.91	3952.58
1766.47	3821.51
1768.02	3968.96
1769.58	3725.26
1771.13	4007.87
1772.68	3880.90
1774.24	3968.96
1775.79	3960.77
1777.34	3911.62
1778.89	3696.58
1780.44	3794.89
1781.99	3792.84
1783.54	4075.46
1785.09	3749.83
1786.64	3987.40
1788.19	3977.16
1789.73	3971.01
1791.28	3940.29
1792.83	4095.94
1794.37	4075.46
1795.92	4163.52
1797.46	4044.74
1799.01	3938.24
1800.55	3798.98
1802.09	4050.88
1803.64	3846.09
1805.18	3917.76
1806.72	3719.11
1808.26	3774.41
1809.80	4083.65
1811.34	3846.09
1812.88	3919.81
1814.42	4026.31
1815.96	3999.68
1817.50	4059.07
1819.04	3874.76
1820.57	3870.66
1822.11	4081.60
1823.65	3923.91
1825.18	3901.38
1826.72	4026.31
1828.25	3936.20
1829.78	3835.85
1831.32	3915.72
1832.85	3917.76
1834.38	3833.80
1835.92	4161.47
1837.45	3870.66
1838.98	3901.38
1840.51	4057.03
1842.04	4184.00
1843.57	3958.72
1845.10	4061.12
1846.62	4155.33
1848.15	4157.38
1849.68	4005.83
1851.21	4046.79
1852.73	4057.03
1854.26	3999.68
1855.78	3985.35
1857.31	4151.23
1858.83	4077.51
1860.36	3803.08
1861.88	3837.89
1863.40	3858.37
1864.92	3919.81
1866.45	4061.12
1867.97	3934.15
1869.49	3874.76
1871.01	3891.14
1872.53	4212.67
1874.05	4097.99
1875.57	3870.66
1877.08	3932.10
1878.60	3940.29
1880.12	4026.31
1881.64	3829.70
1883.15	3973.06
1884.67	3893.19
1886.18	4059.07
1887.70	3940.29
1889.21	3917.76
1890.72	4188.10
1892.24	3725.26
1893.75	4097.99
1895.26	3930.05
1896.77	3919.81
1898.28	3805.13
1899.79	4134.85
1901.30	4030.40
1902.81	4069.31
1904.32	3915.72
1905.83	3921.86
1907.34	4016.07
1908.85	4038.59
1910.35	3907.52
1911.86	3946.44
1913.37	3999.68
1914.87	4143.04
1916.38	4018.11
1917.88	3741.64
1919.39	3827.65
1920.89	3766.21
1922.39	3885.00
1923.89	3964.87
1925.40	3907.52
1926.90	4104.13
1928.40	3942.34
1929.90	3975.11
1931.40	3983.30
1932.90	4106.18
1934.40	4095.94
1935.90	4014.02
1937.39	3805.13
1938.89	4020.16
1940.39	3712.97
1941.89	3989.44
1943.38	4040.64
1944.88	4071.36
1946.37	4196.29
1947.87	3960.77
1949.36	3870.66
1950.85	4077.51
1952.35	3923.91
1953.84	4028.35
1955.33	4052.93
1956.82	4007.87
1958.31	3962.82
1959.80	4018.11
1961.29	3948.48
1962.78	3760.07
1964.27	3817.41
1965.76	4048.83
1967.25	3905.48
1968.74	4024.26
1970.22	4042.69
1971.71	3719.11
1973.20	3921.86
1974.68	3919.81
1976.17	3835.85
1977.65	4057.03
1979.14	4085.70
1980.62	3841.99
1982.10	3958.72
1983.58	3997.63
1985.07	3839.94
1986.55	3803.08
1988.03	4069.31
1989.51	4057.03
1990.99	3899.33
1992.47	3983.30
1993.95	3966.92
1995.43	4001.73
1996.91	4091.84
1998.38	4126.66
1999.86	3958.72
2001.34	3823.56
2002.81	4124.61
2004.29	4155.33
2005.76	4184.00
2007.24	3921.86
2008.71	3907.52
2010.19	3907.52
2011.66	3962.82
2013.13	4114.37
2014.60	4081.60
2016.08	3792.84
2017.55	3792.84
2019.02	3760.07
2020.49	3968.96
2021.96	3997.64
2023.43	3960.77
2024.90	3868.61
2026.36	3968.96
2027.83	4091.84
2029.30	3862.47
2030.77	4149.18
2032.23	3776.45
2033.70	3960.77
2035.16	4036.55
2036.63	3944.39
2038.09	3905.48
2039.56	3825.61
2041.02	4020.16
2042.48	4016.07
2043.95	3954.63
2045.41	4202.43
2046.87	3786.69
2048.33	3837.89
2049.79	3796.93
2051.25	3952.58
2052.71	3807.17
2054.17	3938.24
2055.63	3876.80
2057.09	3833.80
2058.54	3928.00
2060.00	3903.43
2061.46	3872.71
2062.91	4147.14
2064.37	4046.79
2065.82	3895.24
2067.28	4136.90
2068.73	3936.20
2070.19	3852.23
2071.64	3837.89
2073.09	3993.54
2074.54	3938.24
2076.00	3928.00
2077.45	3743.69
2078.90	3936.20
2080.35	4067.27
2081.80	3899.33
2083.25	4100.03
2084.70	3833.80
2086.14	3991.49
2087.59	3715.02
2089.04	3651.53
2090.49	3930.05
2091.93	3919.81
2093.38	3846.09
2094.83	3825.61
2096.27	3979.20
2097.71	3919.81
2099.16	4005.83
2100.60	3966.92
2102.05	3696.58
2103.49	3917.76
2104.93	3956.68
2106.37	3796.93
2107.81	3907.52
2109.25	3977.16
2110.69	3866.56
2112.13	3925.96
2113.57	3897.28
2115.01	3899.33
2116.45	3966.92
2117.89	3938.24
2119.33	4075.46
2120.76	4026.31
2122.20	3854.28
2123.63	4003.78
2125.07	4091.84
2126.51	4136.90
2127.94	3964.87
2129.37	4026.31
2130.81	3995.59
2132.24	3807.17
2133.67	3864.52
2135.11	4198.34
2136.54	3936.20
2137.97	4071.36
2139.40	3794.89
2140.83	3772.36
2142.26	3942.34
2143.69	3719.11
2145.12	4110.27
2146.55	3989.44
2147.97	3977.16
2149.40	3999.68
2150.83	3899.33
2152.25	4005.83
2153.68	3739.59
2155.11	4024.26
2156.53	3827.65
2157.96	3833.80
2159.38	3766.21
2160.80	3776.45
2162.23	4005.83
2163.65	3885.00
2165.07	3882.95
2166.49	3917.76
2167.91	3833.80
2169.33	3848.13
2170.75	3815.37
2172.17	4116.42
2173.59	3592.14
2175.01	3864.52
2176.43	4050.88
2177.85	3891.14
2179.27	3919.81
2180.68	3782.60
2182.10	3938.24
2183.52	3809.22
2184.93	3686.34
2186.35	3559.37
2187.76	3796.93
2189.18	3940.29
2190.59	4071.36
2192.00	3913.67
2193.42	3948.48
2194.83	3674.06
2196.24	3725.26
2197.65	3801.03
2199.06	3882.95
2200.47	3989.44
2201.88	4067.27
2203.29	3835.85
2204.70	3844.04
2206.11	3784.65
2207.52	3944.39
2208.93	3850.18
2210.33	3796.93
2211.74	3936.20
2213.15	4065.22
2214.55	3876.80
2215.96	3717.06
2217.36	3723.21
2218.77	3975.11
2220.17	3751.88
2221.57	3682.25
2222.98	3841.99
2224.38	3944.39
2225.78	3891.14
2227.18	3866.56
2228.58	3864.52
2229.99	3747.78
2231.39	3979.20
2232.79	3858.37
2234.18	3841.99
2235.58	3782.60
2236.98	3674.06
2238.38	3651.53
2239.78	3659.72
2241.17	3817.41
2242.57	3844.04
2243.97	3649.48
2245.36	3880.90
2246.76	3618.76
2248.15	3710.92
2249.55	3735.50
2250.94	3864.52
2252.33	3712.97
2253.73	3850.18
2255.12	3719.11
2256.51	3948.48
2257.90	3559.37
2259.29	3925.96
2260.68	3700.68
2262.07	3958.72
2263.46	4079.55
2264.85	3729.35
2266.24	3801.03
2267.63	3837.89
2269.02	3923.91
2270.40	3905.48
2271.79	3715.02
2273.18	3694.54
2274.56	3559.37
2275.95	3809.22
2277.33	3839.94
2278.72	3872.71
2280.10	3893.19
2281.49	3825.61
2282.87	3770.31
2284.25	3733.45
2285.63	3610.57
2287.02	3872.71
2288.40	3809.22
2289.78	3999.68
2291.16	3768.26
2292.54	3895.24
2293.92	3911.62
2295.30	4063.17
2296.68	3833.80
2298.05	4067.27
2299.43	4077.51
2300.81	3964.87
2302.19	3997.63
2303.56	3907.52
2304.94	3973.06
2306.31	3882.95
2307.69	3966.92
2309.06	3817.41
2310.44	4050.88
2311.81	3962.82
2313.19	3960.77
2314.56	4009.92
2315.93	3936.20
2317.30	3882.95
2318.67	3882.95
2320.04	3706.82
2321.41	3854.28
2322.78	3813.32
2324.15	3776.45
2325.52	3700.68
2326.89	3710.92
2328.26	3846.09
2329.63	3897.28
2331.00	3786.69
2332.36	3694.54
2333.73	3731.40
2335.09	3827.65
2336.46	3893.19
2337.83	3594.19
2339.19	3643.34
2340.55	3776.45
2341.92	3721.16
2343.28	3807.17
2344.64	3776.45
2346.01	3696.58
2347.37	3835.85
2348.73	3794.89
2350.09	3829.70
2351.45	3755.97
2352.81	3749.83
2354.17	4040.64
2355.53	3784.65
2356.89	3717.06
2358.25	3731.40
2359.61	3751.88
2360.96	3846.09
2362.32	3798.98
2363.68	3645.38
2365.03	3801.03
2366.39	3712.97
2367.74	3739.59
2369.10	3706.82
2370.45	3674.06
2371.81	4038.59
2373.16	3880.90
2374.51	3596.23
2375.86	3848.13
2377.22	3624.90
2378.57	3778.50
2379.92	3643.34
2381.27	3710.92
2382.62	3780.55
2383.97	3784.65
2385.32	3661.77
2386.67	3747.78
2388.02	3719.11
2389.37	3739.59
2390.71	3731.40
2392.06	3762.12
2393.41	3973.06
2394.75	3774.41
2396.10	4009.92
2397.44	3678.15
2398.79	3960.77
2400.13	3837.89
2401.48	3596.23
2402.82	3686.34
2404.17	3839.94
2405.51	3749.83
2406.85	3569.61
2408.19	3721.16
2409.53	3678.15
2410.87	3704.78
2412.22	3864.52
2413.56	3692.49
2414.89	3669.96
2416.23	3772.36
2417.57	3823.56
2418.91	3882.95
2420.25	3831.75
2421.59	3712.97
2422.92	3694.54
2424.26	3882.95
2425.60	3524.55
2426.93	3766.21
2428.27	3579.85
2429.60	3821.51
2430.94	3682.25
2432.27	3643.34
2433.60	3700.68
2434.94	3629.00
2436.27	3760.07
2437.60	3774.41
2438.93	3717.06
2440.27	3583.95
2441.60	3786.69
2442.93	3604.42
2444.26	3743.69
2445.59	3698.63
2446.92	3647.43
2448.24	3626.95
2449.57	3665.86
2450.90	3499.98
2452.23	3487.69
2453.55	3694.54
2454.88	3749.83
2456.21	3604.42
2457.53	3696.58
2458.86	3801.03
2460.18	3672.01
2461.51	3747.78
2462.83	3624.90
2464.15	3661.77
2465.48	3657.67
2466.80	3688.39
2468.12	3860.42
2469.44	3710.92
2470.76	3657.67
2472.09	3751.88
2473.41	3717.06
2474.73	3602.38
2476.05	3647.43
2477.36	3809.22
2478.68	3782.60
2480.00	3784.65
2481.32	3532.75
2482.64	3874.76
2483.95	3674.06
2485.27	3669.96
2486.59	3639.24
2487.90	3710.92
2489.22	3780.55
2490.53	3567.56
2491.85	3807.17
2493.16	3766.21
2494.47	3751.88
2495.79	3626.95
2497.10	3614.66
2498.41	3590.09
2499.72	3948.48
2501.03	3661.77
2502.35	3751.88
2503.66	3618.76
2504.97	3637.19
2506.28	3753.93
2507.59	3700.68
2508.89	3862.47
2510.20	3778.50
2511.51	3567.56
2512.82	3901.38
2514.12	3774.41
2515.43	3770.31
2516.74	3710.92
2518.04	3788.74
2519.35	3876.80
2520.65	3575.75
2521.96	3794.89
2523.26	3788.74
2524.57	3768.26
2525.87	3821.51
2527.17	3895.24
2528.47	3801.03
2529.78	3651.53
2531.08	3626.95
2532.38	3919.81
2533.68	3702.73
2534.98	3639.24
2536.28	3848.13
2537.58	3631.05
2538.88	3672.01
2540.18	3592.14
2541.47	3667.91
2542.77	3592.14
2544.07	3747.78
2545.37	3760.07
2546.66	3465.16
2547.96	3608.52
2549.25	3473.36
2550.55	3610.57
2551.84	3524.55
2553.14	3571.66
2554.43	3583.95
2555.72	3641.29
2557.02	3585.99
2558.31	3579.85
2559.60	3542.99
2560.89	3766.21
2562.18	3534.79
2563.48	3575.75
2564.77	3456.97
2566.06	3588.04
2567.35	3680.20
2568.63	3680.20
2569.92	3612.62
2571.21	3645.38
2572.50	3559.37
2573.79	3532.75
2575.07	3465.16
2576.36	3590.09
2577.65	3641.29
2578.93	3727.30
2580.22	3784.65
2581.50	3575.75
2582.79	3473.36
2584.07	3590.09
2585.36	3530.70
2586.64	3559.37
2587.92	3721.16
2589.20	3557.32
2590.49	3555.27
2591.77	3499.98
2593.05	3604.42
2594.33	3528.65
2595.61	3626.95
2596.89	3581.90
2598.17	3817.41
2599.45	3887.04
2600.73	3518.41
2602.00	3487.69
2603.28	3663.82
2604.56	3563.47
2605.84	3680.20
2607.11	3614.66
2608.39	3710.92
2609.67	3663.82
2610.94	3430.35
2612.22	3448.78
2613.49	3518.41
2614.76	3506.12
2616.04	3420.11
2617.31	3471.31
2618.58	3674.06
2619.86	3549.13
2621.13	3473.35
2622.40	3618.76
2623.67	3612.62
2624.94	3655.62
2626.21	3450.83
2627.48	3428.30
2628.75	3497.93
2630.02	3268.56
2631.29	3508.17
2632.56	3426.25
2633.82	3403.72
2635.09	3547.08
2636.36	3565.51
2637.63	3602.38
2638.89	3444.68
2640.16	3426.25
2641.42	3747.78
2642.69	3770.31
2643.95	3538.89
2645.22	3516.36
2646.48	3499.98
2647.74	3637.19
2649.01	3442.64
2650.27	3479.50
2651.53	3542.99
2652.79	3420.11
2654.05	3270.61
2655.31	3528.65
2656.57	3485.64
2657.83	3422.16
2659.09	3405.77
2660.35	3391.44
2661.61	3553.23
2662.87	3538.89
2664.13	3510.22
2665.38	3454.92
2666.64	3665.86
2667.90	3454.92
2669.15	3633.10
2670.41	3452.88
2671.67	3487.69
2672.92	3598.28
2674.17	3481.55
2675.43	3483.59
2676.68	3497.93
2677.94	3362.76
2679.19	3608.52
2680.44	3583.95
2681.69	3547.08
2682.95	3442.64
2684.20	3499.98
2685.45	3629.00
2686.70	3483.59
2687.95	3403.72
2689.20	3547.08
2690.45	3649.48
2691.70	3598.28
2692.94	3411.92
2694.19	3512.27
2695.44	3334.09
2696.69	3518.41
2697.93	3276.75
2699.18	3436.49
2700.43	3672.01
2701.67	3571.66
2702.92	3499.98
2704.16	3389.39
2705.41	3411.92
2706.65	3516.36
2707.89	3555.27
2709.14	3459.02
2710.38	3620.81
2711.62	3629.00
2712.86	3510.22
2714.11	3254.22
2715.35	3485.64
2716.59	3481.55
2717.83	3471.31
2719.07	3536.84
2720.31	3385.29
2721.55	3356.62
2722.78	3551.18
2724.02	3465.16
2725.26	3321.81
2726.50	3235.79
2727.73	3518.41
2728.97	3364.81
2730.21	3168.21
2731.44	3381.20
2732.68	3622.86
2733.91	3358.67
2735.15	3276.75
2736.38	3424.20
2737.62	3205.07
2738.85	3383.24
2740.08	3311.57
2741.32	3274.70
2742.55	3286.99
2743.78	3526.60
2745.01	3411.92
2746.24	3569.61
2747.47	3389.39
2748.70	3514.31
2749.93	3309.52
2751.16	3403.72
2752.39	3293.13
2753.62	3407.82
2754.85	3325.90
2756.08	3362.76
2757.30	3237.84
2758.53	3405.77
2759.76	3186.64
2760.98	3448.78
2762.21	3383.24
2763.43	3456.97
2764.66	3327.95
2765.88	3309.52
2767.11	3332.05
2768.33	3485.64
2769.55	3348.43
2770.78	3450.83
2772.00	3264.46
2773.22	3368.91
2774.44	3278.80
2775.67	3430.35
2776.89	3289.04
2778.11	3336.14
2779.33	3198.93
2780.55	3542.99
2781.77	3346.38
2782.99	3338.19
2784.20	3391.44
2785.42	3522.51
2786.64	3254.22
2787.86	3375.05
2789.07	3510.22
2790.29	3131.34
2791.51	3268.56
2792.72	3276.75
2793.94	3289.04
2795.15	3520.46
2796.37	3327.95
2797.58	3491.79
2798.80	3432.40
2800.01	3379.15
2801.22	3512.27
2802.44	3418.06
2803.65	3340.24
2804.86	3387.34
2806.07	3352.52
2807.28	3293.13
2808.49	3198.93
2809.70	3162.06
2810.91	3291.09
2812.12	3520.46
2813.33	3409.87
2814.54	3420.11
2815.75	3352.52
2816.96	3416.01
2818.16	3426.25
2819.37	3436.49
2820.58	3379.15
2821.78	3606.47
2822.99	3297.23
2824.20	3389.39
2825.40	3692.49
2826.61	3639.24
2827.81	3735.50
2829.01	3702.73
2830.22	3803.08
2831.42	3925.96
2832.62	3913.67
2833.83	3932.10
2835.03	3784.65
2836.23	3815.37
2837.43	3866.57
2838.63	3708.87
2839.83	3745.73
2841.03	3653.58
2842.23	3524.55
2843.43	3536.84
2844.63	3356.62
2845.83	3358.67
2847.03	3135.44
2848.22	3211.21
2849.42	3266.51
2850.62	3485.64
2851.81	3428.30
2853.01	3346.38
2854.21	3370.96
2855.40	3301.33
2856.60	3180.50
2857.79	3307.47
2858.99	3069.91
2860.18	3221.45
2861.37	3229.65
2862.57	3297.23
2863.76	3241.93
2864.95	3262.41
2866.14	3174.35
2867.33	3108.82
2868.52	3252.17
2869.72	3194.83
2870.91	3182.54
2872.10	3266.51
2873.28	3096.53
2874.47	3391.44
2875.66	3286.99
2876.85	3426.25
2878.04	3274.70
2879.23	3321.81
2880.41	3260.37
2881.60	3229.65
2882.79	3282.89
2883.97	3196.88
2885.16	3325.90
2886.34	3176.40
2887.53	3182.54
2888.71	3280.85
2889.90	3289.04
2891.08	3299.28
2892.26	3420.11
2893.45	3194.83
2894.63	3270.61
2895.81	3274.70
2896.99	3051.47
2898.17	3213.26
2899.36	3250.13
2900.54	3254.22
2901.72	3151.82
2902.90	3114.96
2904.08	3391.44
2905.26	3182.54
2906.43	3225.55
2907.61	3477.45
2908.79	3456.97
2909.97	3358.67
2911.14	3340.24
2912.32	3237.84
2913.50	3235.79
2914.67	3110.86
2915.85	3446.73
2917.02	3231.69
2918.20	3129.30
2919.37	3092.43
2920.55	3153.87
2921.72	3123.15
2922.90	3241.93
2924.07	3264.46
2925.24	3108.82
2926.41	3176.40
2927.58	3373.00
2928.76	3057.62
2929.93	3237.84
2931.10	3188.69
2932.27	3039.19
2933.44	3284.94
2934.61	3301.33
2935.78	3282.89
2936.95	3153.87
2938.11	3321.81
2939.28	3227.60
2940.45	3254.22
2941.62	3237.84
2942.78	3311.57
2943.95	3319.76
2945.12	3231.69
2946.28	3442.64
2947.45	3164.11
2948.61	3368.91
2949.78	3221.45
2950.94	3338.19
2952.10	3432.40
2953.27	3735.50
2954.43	3702.73
2955.59	3694.54
2956.76	3700.68
2957.92	3473.35
2959.08	3676.10
2960.24	3649.48
2961.40	3700.68
2962.56	3837.89
2963.72	4014.02
2964.88	4097.99
2966.04	4333.50
2967.20	4186.05
2968.36	4353.98
2969.52	4603.83
2970.67	4765.62
2971.83	5164.98
2972.99	5396.40
2974.14	5877.67
2975.30	7026.58
2976.46	7911.30
2977.61	9432.94
2978.77	11511.63
2979.92	13924.14
2981.08	16670.47
2982.23	19554.01
2983.38	22453.93
2984.54	24923.78
2985.69	26789.48
2986.84	27928.15
2987.99	29083.20
2989.15	28448.33
2990.30	27111.01
2991.45	25224.83
2992.60	23785.11
2993.75	22412.97
2994.90	19859.15
2996.05	18093.80
2997.20	16088.84
2998.35	14042.92
2999.49	12328.77
3000.64	10999.64
3001.79	9973.61
3002.94	9121.65
3004.08	8136.58
3005.23	7438.22
3006.38	6897.56
3007.52	6518.68
3008.67	6098.85
3009.81	5773.22
3010.96	5339.05
3012.10	5162.93
3013.25	4902.84
3014.39	4775.86
3015.53	4505.53
3016.67	4652.98
3017.82	4550.59
3018.96	4360.13
3020.10	4259.78
3021.24	4163.52
3022.38	4216.77
3023.52	4251.58
3024.66	4206.53
3025.80	4079.55
3026.94	4190.14
3028.08	3801.03
3029.22	3887.04
3030.36	3938.24
3031.50	4224.96
3032.63	3979.20
3033.77	3844.04
3034.91	4319.17
3036.04	4198.34
3037.18	4333.50
3038.32	4274.11
3039.45	4057.03
3040.59	4317.12
3041.72	4579.26
3042.86	4446.14
3043.99	4585.40
3045.12	4689.85
3046.26	4857.78
3047.39	4904.89
3048.52	4782.01
3049.65	4984.76
3050.78	4564.92
3051.92	4921.27
3053.05	4941.75
3054.18	5169.07
3055.31	5248.94
3056.44	5144.50
3057.57	5183.41
3058.70	5173.17
3059.82	4876.21
3060.95	4747.19
3062.08	4751.29
3063.21	4712.38
3064.34	4638.65
3065.46	4472.76
3066.59	4446.14
3067.71	4601.79
3068.84	4435.90
3069.97	4126.66
3071.09	4061.12
3072.22	3962.82
3073.34	3862.47
3074.46	4173.76
3075.59	3870.66
3076.71	3882.95
3077.83	3862.47
3078.96	3874.76
3080.08	3733.45
3081.20	3499.98
3082.32	3604.42
3083.44	3661.77
3084.56	3618.76
3085.68	3430.35
3086.80	3620.81
3087.92	3506.12
3089.04	3626.95
3090.16	3504.07
3091.28	3434.44
3092.40	3370.96
3093.51	3610.57
3094.63	3493.83
3095.75	3223.50
3096.87	3248.08
3097.98	3375.05
3099.10	3303.37
3100.21	3106.77
3101.33	3176.40
3102.44	3358.67
3103.56	3119.06
3104.67	3350.48
3105.79	3047.38
3106.90	3133.39
3108.01	3174.35
3109.12	3119.06
3110.24	3256.27
3111.35	3239.89
3112.46	3135.44
3113.57	3147.73
3114.68	3043.28
3115.79	3045.33
3116.90	3112.91
3118.01	3057.62
3119.12	2977.75
3120.23	3006.42
3121.34	3284.94
3122.45	3143.63
3123.56	3114.96
3124.66	2879.44
3125.77	3002.32
3126.88	2996.18
3127.98	3012.56
3129.09	3012.56
3130.20	3002.32
3131.30	3071.95
3132.41	2897.88
3133.51	2949.08
3134.61	2885.59
3135.72	3061.71
3136.82	3035.09
3137.93	2963.41
3139.03	2883.54
3140.13	3000.27
3141.23	3082.19
3142.33	3100.62
3143.44	3043.28
3144.54	2990.03
3145.64	2856.92
3146.74	3024.85
3147.84	2965.46
3148.94	2881.49
3150.04	2795.48
3151.14	2957.27
3152.23	3059.67
3153.33	2856.92
3154.43	2949.08
3155.53	3008.47
3156.63	3002.32
3157.72	3067.86
3158.82	2768.85
3159.91	2867.16
3161.01	2838.48
3162.11	2963.41
3163.20	2744.28
3164.30	2861.01
3165.39	2801.62
3166.48	2963.41
3167.58	2850.77
3168.67	2885.59
3169.76	2795.48
3170.86	2783.19
3171.95	2750.42
3173.04	2883.54
3174.13	2758.61
3175.22	2682.84
3176.31	2955.22
3177.40	2764.76
3178.49	2938.84
3179.58	2711.51
3180.67	2957.27
3181.76	2785.24
3182.85	2924.50
3183.94	2723.80
3185.03	2826.20
3186.11	2994.13
3187.20	2842.58
3188.29	2797.53
3189.37	2791.38
3190.46	2977.75
3191.55	2588.63
3192.63	2656.22
3193.72	2566.10
3194.80	2748.37
3195.89	2920.40
3196.97	2760.66
3198.05	2801.62
3199.14	2660.31
3200.22	2684.89
3201.30	2772.95
3202.38	2752.47
3203.47	2756.57
3204.55	2703.32
3205.63	2250.72
3206.71	2715.61
3207.79	2670.55
3208.87	2723.80
3209.95	2848.72
3211.03	2752.47
3212.11	2691.03
3213.19	2703.32
3214.27	2731.99
3215.34	2652.12
3216.42	2691.03
3217.50	2600.92
3218.58	2691.03
3219.65	2463.71
3220.73	2590.68
3221.80	2613.21
3222.88	2711.51
3223.96	2572.25
3225.03	2482.14
3226.10	2846.68
3227.18	2709.46
3228.25	2635.74
3229.33	2815.96
3230.40	2519.00
3231.47	2682.84
3232.54	2680.79
3233.62	2752.47
3234.69	2750.42
3235.76	2809.81
3236.83	2717.65
3237.90	2779.09
3238.97	2758.61
3240.04	2514.91
3241.11	2547.67
3242.18	2553.82
3243.25	2666.46
3244.32	2582.49
3245.39	2639.83
3246.45	2512.86
3247.52	2562.01
3248.59	2652.12
3249.66	2496.47
3250.72	2770.90
3251.79	2633.69
3252.85	2582.49
3253.92	2809.81
3254.98	2445.27
3256.05	2674.65
3257.11	2693.08
3258.18	2590.68
3259.24	2838.48
3260.30	2623.45
3261.37	2541.53
3262.43	2592.73
3263.49	2547.67
3264.55	2480.09
3265.62	2861.01
3266.68	2572.25
3267.74	2736.09
3268.80	2799.57
3269.86	2590.68
3270.92	2586.58
3271.98	2736.09
3273.04	2754.52
3274.10	2574.30
3275.16	2445.27
3276.21	2678.74
3277.27	2416.60
3278.33	2588.63
3279.39	2553.82
3280.44	2605.02
3281.50	2504.67
3282.56	2465.75
3283.61	2668.50
3284.67	2562.01
3285.72	2564.06
3286.78	2453.47
3287.83	2670.55
3288.88	2514.91
3289.94	2588.63
3290.99	2674.65
3292.04	2658.26
3293.10	2508.76
3294.15	2527.19
3295.20	2709.46
3296.25	2777.05
3297.30	2625.50
3298.36	2369.50
3299.41	2461.66
3300.46	2222.05
3301.51	2766.81
3302.56	2559.96
3303.61	2623.45
3304.65	2457.56
3305.70	2564.06
3306.75	2652.12
3307.80	2600.92
3308.85	2473.95
3309.89	2514.91
3310.94	2594.78
3311.99	2568.15
3313.03	2506.71
3314.08	2510.81
3315.12	2461.66
3316.17	2688.98
3317.21	2467.80
3318.26	2721.75
3319.30	2449.37
3320.35	2662.36
3321.39	2596.82
3322.43	2686.94
3323.48	2359.26
3324.52	2645.98
3325.56	2424.80
3326.60	2484.19
3327.64	2490.33
3328.68	2430.94
3329.73	2600.92
3330.77	2596.82
3331.81	2246.62
3332.85	2490.33
3333.88	2451.42
3334.92	2461.66
3335.96	2432.99
3337.00	2488.28
3338.04	2494.43
3339.08	2514.91
3340.11	2467.80
3341.15	2349.02
3342.19	2443.23
3343.22	2492.38
3344.26	2414.56
3345.30	2469.85
3346.33	2574.30
3347.37	2553.82
3348.40	2465.75
3349.43	2473.95
3350.47	2504.67
3351.50	2469.85
3352.54	2426.84
3353.57	2588.63
3354.60	2445.27
3355.63	2504.67
3356.67	2451.42
3357.70	2467.80
3358.73	2422.75
3359.76	2656.22
3360.79	2502.62
3361.82	2516.95
3362.85	2555.87
3363.88	2564.06
3364.91	2461.66
3365.94	2428.89
3366.97	2340.83
3367.99	2435.03
3369.02	2492.38
3370.05	2412.51
3371.08	2455.51
3372.10	2340.83
3373.13	2318.30
3374.16	2410.46
3375.18	2441.18
3376.21	2353.12
3377.23	2381.79
3378.26	2512.86
3379.28	2402.27
3380.31	2342.88
3381.33	2422.75
3382.35	2445.27
3383.38	2523.10
3384.40	2439.13
3385.42	2230.24
3386.45	2385.88
3387.47	2510.81
3388.49	2396.12
3389.51	2377.69
3390.53	2512.86
3391.55	2256.86
3392.57	2326.49
3393.59	2502.62
3394.61	2267.10
3395.63	2432.99
3396.65	2422.75
3397.67	2326.49
3398.69	2422.75
3399.70	2269.15
3400.72	2451.42
3401.74	2256.86
3402.76	2187.23
3403.77	2310.11
3404.79	2334.68
3405.80	2271.20
3406.82	2336.73
3407.83	2189.28
3408.85	2367.45
3409.86	2430.94
3410.88	2326.49
3411.89	2385.88
3412.91	2398.17
3413.92	2252.77
3414.93	2148.32
3415.94	2355.16
3416.96	2402.27
3417.97	2322.40
3418.98	2351.07
3419.99	2340.83
3421.00	2121.70
3422.01	2349.02
3423.02	2131.94
3424.03	2308.06
3425.04	2209.76
3426.05	2314.20
3427.06	2432.99
3428.07	2256.86
3429.08	2381.79
3430.09	2418.65
3431.09	2355.16
3432.10	2430.94
3433.11	2385.88
3434.12	2316.25
3435.12	2248.67
3436.13	2437.08
3437.13	2285.53
3438.14	2369.50
3439.14	2314.20
3440.15	2166.75
3441.15	2383.84
3442.16	2447.32
3443.16	2152.42
3444.16	2314.20
3445.17	2359.26
3446.17	2254.81
3447.17	2195.42
3448.17	2353.12
3449.18	2420.70
3450.18	2211.81
3451.18	2220.00
3452.18	2285.53
3453.18	2238.43
3454.18	2078.69
3455.18	2281.44
3456.18	2201.57
3457.18	2301.92
3458.18	2269.15
3459.17	2013.15
3460.17	2277.34
3461.17	2232.29
3462.17	2385.88
3463.17	2375.64
3464.16	2338.78
3465.16	2351.07
3466.15	2144.22
3467.15	2195.42
3468.15	2285.53
3469.14	2267.10
3470.14	2226.14
3471.13	2342.88
3472.13	2205.66
3473.12	2314.20
3474.11	2256.86
3475.11	2273.25
3476.10	2146.27
3477.09	2086.88
3478.08	2095.07
3479.08	2127.84
3480.07	2215.90
3481.06	2308.06
3482.05	2164.70
3483.04	2176.99
3484.03	2279.39
3485.02	2281.44
3486.01	2222.05
3487.00	2465.75
3487.99	2367.45
3488.98	2095.07
3489.97	2295.77
3490.95	2248.67
3491.94	2160.61
3492.93	2277.34
3493.92	2211.81
3494.90	2166.75
3495.89	2080.74
3496.88	2052.06
3497.86	2090.98
3498.85	2060.26
3499.83	2056.16
3500.82	2088.93
3501.80	2361.31
3502.79	2127.84
3503.77	2267.10
3504.75	2318.30
3505.74	2152.42
3506.72	2281.44
3507.70	2402.27
3508.68	2320.35
3509.67	2267.10
3510.65	2359.26
3511.63	2230.24
3512.61	2119.65
3513.59	2140.13
3514.57	2166.75
3515.55	2289.63
3516.53	2129.89
3517.51	2207.71
3518.49	2168.80
3519.47	2215.90
3520.45	2170.85
3521.42	2127.84
3522.40	2297.82
3523.38	2220.00
3524.36	2203.61
3525.33	2107.36
3526.31	2236.38
3527.29	2103.26
3528.26	2332.64
3529.24	2111.46
3530.21	2236.38
3531.19	2279.39
3532.16	2254.81
3533.14	2023.39
3534.11	2330.59
3535.08	2150.37
3536.06	2197.47
3537.03	2129.89
3538.00	2316.25
3538.98	2211.81
3539.95	2244.57
3540.92	2256.86
3541.89	2244.57
3542.86	2156.51
3543.83	2095.07
3544.80	2011.11
3545.77	2060.26
3546.74	2058.21
3547.71	2133.98
3548.68	2129.89
3549.65	2340.83
3550.62	2150.37
3551.59	2422.75
3552.56	2414.56
3553.52	2275.29
3554.49	2195.42
3555.46	2398.17
3556.42	2113.50
3557.39	2168.80
3558.36	2260.96
3559.32	2209.76
3560.29	2430.94
3561.25	2250.72
3562.22	2056.16
3563.18	2002.91
3564.15	2256.86
3565.11	2195.42
3566.07	2191.33
3567.04	2244.57
3568.00	2133.98
3568.96	2050.02
3569.92	2009.06
3570.89	2011.11
3571.85	2332.64
3572.81	2207.71
3573.77	2115.55
3574.73	2185.18
3575.69	2230.24
3576.65	2349.02
3577.61	2023.39
3578.57	1966.05
3579.53	2078.69
3580.49	2148.32
3581.45	2107.36
3582.40	2127.84
3583.36	2090.98
3584.32	2172.89
3585.28	2070.50
3586.23	2144.22
3587.19	2164.70
3588.15	2062.30
3589.10	2052.06
3590.06	2222.05
3591.01	2183.13
3591.97	2156.51
3592.92	2125.79
3593.88	2062.30
3594.83	2172.89
3595.78	2078.69
3596.74	2080.74
3597.69	2099.17
3598.64	2066.40
3599.60	2181.09
3600.55	2101.22
3601.50	1918.95
3602.45	1964.00
3603.40	2054.11
3604.35	2023.39
3605.31	2269.15
3606.26	2154.46
3607.21	2260.96
3608.16	2121.70
3609.10	2039.78
3610.05	2164.70
3611.00	2072.54
3611.95	2050.02
3612.90	2107.36
3613.85	1998.82
3614.79	2162.65
3615.74	2115.55
3616.69	2068.45
3617.63	1961.95
3618.58	2107.36
3619.53	2136.03
3620.47	2189.28
3621.42	2310.11
3622.36	2125.79
3623.31	2123.74
3624.25	2148.32
3625.20	2050.02
3626.14	1947.62
3627.08	2031.58
3628.03	1966.05
3628.97	2127.84
3629.91	2181.09
3630.85	2226.14
3631.80	2213.85
3632.74	2361.31
3633.68	2123.74
3634.62	2082.78
3635.56	1959.91
3636.50	2148.32
3637.44	1990.63
3638.38	1783.78
3639.32	1892.32
3640.26	2113.50
3641.20	2140.13
3642.14	2226.14
3643.08	2154.46
3644.01	2039.78
3644.95	2031.59
3645.89	2138.08
3646.83	1740.77
3647.76	2185.18
3648.70	2082.78
3649.63	2148.32
3650.57	2226.14
3651.51	2365.40
3652.44	2101.22
3653.38	2107.36
3654.31	1974.24
3655.24	2131.94
3656.18	2000.87
3657.11	2054.11
3658.05	1861.60
3658.98	2062.30
3659.91	1980.39
3660.84	2105.31
3661.78	2050.02
3662.71	1968.10
3663.64	1970.15
3664.57	1966.05
3665.50	1984.48
3666.43	2064.35
3667.36	1933.28
3668.29	1863.65
3669.22	2125.79
3670.15	1859.56
3671.08	2056.16
3672.01	1871.84
3672.94	1953.76
3673.86	1812.45
3674.79	2035.68
3675.72	1957.86
3676.65	2133.98
3677.57	2080.74
3678.50	2056.16
3679.43	2080.74
3680.35	1892.32
3681.28	2013.15
3682.20	1843.17
3683.13	2084.83
3684.05	1861.60
3684.98	2066.40
3685.90	1898.47
3686.83	2088.93
3687.75	2148.32
3688.67	2117.60
3689.60	1990.63
3690.52	2017.25
3691.44	1990.63
3692.36	1898.47
3693.28	1951.71
3694.21	2101.22
3695.13	2164.70
3696.05	2189.28
3696.97	2043.87
3697.89	2189.28
3698.81	1961.95
3699.73	1904.61
3700.65	1986.53
3701.57	2074.59
3702.48	1902.56
3703.40	1988.58
3704.32	1998.82
3705.24	2062.30
3706.16	2004.96
3707.07	2205.66
3707.99	1918.95
3708.91	2099.17
3709.82	2025.44
3710.74	1982.43
3711.66	2035.68
3712.57	2031.58
3713.49	2017.25
3714.40	1941.47
3715.31	2082.78
3716.23	1994.72
3717.14	2019.30
3718.06	2072.54
3718.97	2131.94
3719.88	1867.75
3720.80	2031.58
3721.71	-4464.57
3722.62	2090.98
3723.53	2000.87
3724.44	1935.33
3725.35	1822.69
3726.26	1839.08
3727.18	1828.84
3728.09	1865.70
3729.00	1972.19
3729.91	2076.64
3730.81	2025.44
3731.72	1978.34
3732.63	1863.65
3733.54	1918.95
3734.45	1906.66
3735.36	2009.06
3736.26	1863.65
3737.17	2039.78
3738.08	2033.63
3738.99	1820.64
3739.89	2011.11
3740.80	2078.69
3741.70	1920.99
3742.61	2004.96
3743.51	1955.81
3744.42	1875.94
3745.32	1976.29
3746.23	2084.83
3747.13	1964.00
3748.04	2052.06
3748.94	1898.47
3749.84	1964.00
3750.74	1728.49
3751.65	1822.69
3752.55	1867.75
3753.45	1920.99
3754.35	1900.51
3755.25	1896.42
3756.16	1986.53
3757.06	1906.66
3757.96	2004.96
3758.86	1794.02
3759.76	1843.17
3760.66	1937.38
3761.55	1914.85
3762.45	1753.06
3763.35	1791.97
3764.25	1800.16
3765.15	1947.62
3766.05	1986.53
3766.94	1923.04
3767.84	1892.32
3768.74	1769.45
3769.63	1994.72
3770.53	1796.07
3771.43	1812.45
3772.32	1933.28
3773.22	1867.75
3774.11	1941.47
3775.01	1847.27
3775.90	1759.21
3776.80	1732.58
3777.69	1828.84
3778.58	1904.61
3779.48	1710.05
3780.37	1947.62
3781.26	1894.37
3782.16	1951.71
3783.05	2033.63
3783.94	1861.60
3784.83	1949.67
3785.72	1785.83
3786.61	1949.67
3787.50	1857.51
3788.39	1941.47
3789.28	1816.55
3790.17	1976.29
3791.06	1771.49
3791.95	1966.05
3792.84	1781.73
3793.73	1783.78
3794.62	1884.13
3795.51	1660.90
3796.39	1847.27
3797.28	1660.90
3798.17	1708.01
3799.06	1767.40
3799.94	1841.12
3800.83	1728.49
3801.71	1689.57
3802.60	1746.92
3803.48	1746.92
3804.37	1796.07
3805.25	1763.30
3806.14	1877.99
3807.02	1800.16
3807.91	1818.60
3808.79	1677.29
3809.67	1880.04
3810.56	1910.75
3811.44	1859.56
3812.32	1900.51
3813.20	1955.81
3814.09	1849.32
3814.97	1644.52
3815.85	1859.56
3816.73	1681.38
3817.61	1837.03
3818.49	1759.21
3819.37	1945.57
3820.25	1880.04
3821.13	1736.68
3822.01	1804.26
3822.89	1681.38
3823.77	1802.21
3824.65	1679.33
3825.52	1730.53
3826.40	1808.36
3827.28	2029.54
3828.16	1646.57
3829.03	1841.12
3829.91	1906.66
3830.79	1677.29
3831.66	1902.56
3832.54	1796.07
3833.41	1935.33
3834.29	1816.55
3835.16	1849.32
3836.04	1859.56
3836.91	1617.90
3837.79	1677.29
3838.66	1701.86
3839.53	1800.16
3840.41	1697.77
3841.28	1832.93
3842.15	1621.99
3843.02	1726.44
3843.90	1775.59
3844.77	1726.44
3845.64	1783.78
3846.51	1753.06
3847.38	1839.08
3848.25	1769.44
3849.12	1730.53
3849.99	1703.91
3850.86	1890.28
3851.73	1701.86
3852.60	1675.24
3853.47	1781.73
3854.34	1800.16
3855.21	1609.70
3856.07	1542.12
3856.94	1796.07
3857.81	1923.04
3858.68	1810.40
3859.54	1542.12
3860.41	1769.44
3861.28	1703.91
3862.14	1550.31
3863.01	1757.16
3863.87	1671.14
3864.74	1640.42
3865.60	1648.61
3866.47	1617.90
3867.33	1796.07
3868.19	1628.14
3869.06	1613.80
3869.92	1746.92
3870.78	1607.66
3871.65	1660.90
3872.51	1578.98
3873.37	1656.81
3874.23	1619.94
3875.10	1617.90
3875.96	1667.05
3876.82	1517.54
3877.68	1705.96
3878.54	1560.55
3879.40	1554.41
3880.26	1533.93
3881.12	1738.73
3881.98	1542.12
3882.84	1685.48
3883.70	1740.77
3884.55	1646.57
3885.41	1466.35
3886.27	1626.09
3887.13	1484.78
3887.99	1611.75
3888.84	1546.22
3889.70	1650.66
3890.56	1609.70
3891.41	1757.16
3892.27	1703.91
3893.12	1552.36
3893.98	1548.26
3894.83	1511.40
3895.69	1681.38
3896.54	1624.04
3897.40	1695.72
3898.25	1662.95
3899.11	1484.78
3899.96	1572.84
3900.81	1679.33
3901.66	1533.93
3902.52	1740.77
3903.37	1556.46
3904.22	1398.76
3905.07	1560.55
3905.92	1499.11
3906.78	1742.82
3907.63	1406.95
