raman n
-2184.52	-67.58
-2181.51	-67.58
-2178.50	-67.58
-2175.49	-4.10
-2172.49	55.30
-2169.48	43.01
-2166.48	16.38
-2163.48	-18.43
-2160.47	90.11
-2157.47	43.01
-2154.47	4.10
-2151.48	-178.17
-2148.48	18.43
-2145.49	16.38
-2142.49	4.10
-2139.50	-43.01
-2136.51	34.82
-2133.52	-16.38
-2130.53	901.11
-2127.54	1138.67
-2124.55	1105.90
-2121.57	1179.63
-2118.58	1189.87
-2115.60	1267.69
-2112.62	1355.76
-2109.64	1144.81
-2106.66	1206.25
-2103.68	1196.01
-2100.70	1269.74
-2097.73	1161.20
-2094.75	1249.26
-2091.78	1091.57
-2088.81	1132.53
-2085.83	1320.94
-2082.86	1357.80
-2079.90	1091.57
-2076.93	1206.25
-2073.96	1099.76
-2071.00	1282.03
-2068.03	1286.12
-2065.07	1265.64
-2062.11	1177.58
-2059.15	1370.09
-2056.19	1339.37
-2053.23	1304.56
-2050.27	1228.78
-2047.32	1214.45
-2044.36	1159.15
-2041.41	1366.00
-2038.46	1273.84
-2035.51	1077.23
-2032.56	1214.45
-2029.61	1212.40
-2026.66	1247.21
-2023.72	1243.12
-2020.77	1169.39
-2017.83	1208.30
-2014.88	1148.91
-2011.94	1208.30
-2009.00	1206.25
-2006.06	978.93
-2003.13	1075.18
-2000.19	1220.59
-1997.25	1136.62
-1994.32	1075.18
-1991.39	1181.68
-1988.45	1329.13
-1985.52	1302.51
-1982.59	1353.71
-1979.67	1322.99
-1976.74	1396.71
-1973.81	1331.18
-1970.89	1441.77
-1967.96	1257.45
-1965.04	1261.55
-1962.12	1226.73
-1959.20	1261.55
-1956.28	1163.25
-1953.36	1171.44
-1950.45	1148.91
-1947.53	1030.13
-1944.62	1083.38
-1941.70	1120.24
-1938.79	1095.66
-1935.88	1202.16
-1932.97	1273.84
-1930.06	1181.68
-1927.15	1026.03
-1924.25	1261.55
-1921.34	1073.14
-1918.44	1255.40
-1915.54	1056.75
-1912.63	1277.93
-1909.73	1038.32
-1906.83	1011.70
-1903.94	1269.74
-1901.04	1028.08
-1898.14	1236.97
-1895.25	1120.24
-1892.36	1306.60
-1889.46	1181.68
-1886.57	1193.97
-1883.68	913.39
-1880.79	1265.64
-1877.91	1241.07
-1875.02	1017.84
-1872.13	1220.59
-1869.25	1290.22
-1866.37	1312.75
-1863.48	1329.13
-1860.60	1259.50
-1857.72	1343.47
-1854.84	1322.99
-1851.97	1228.78
-1849.09	1124.33
-1846.22	1218.54
-1843.34	1144.81
-1840.47	1193.97
-1837.60	1134.57
-1834.73	1210.35
-1831.86	1333.23
-1828.99	1060.85
-1826.12	1279.98
-1823.26	1175.53
-1820.39	1239.02
-1817.53	1079.28
-1814.67	1357.80
-1811.80	1202.16
-1808.94	1038.32
-1806.08	1322.99
-1803.23	1167.34
-1800.37	1173.49
-1797.51	1163.25
-1794.66	1128.43
-1791.81	1062.90
-1788.95	1142.77
-1786.10	1034.22
-1783.25	1081.33
-1780.40	1001.46
-1777.56	1009.65
-1774.71	1210.35
-1771.86	1130.48
-1769.02	1146.86
-1766.18	1064.94
-1763.33	921.59
-1760.49	1212.40
-1757.65	1097.71
-1754.81	1114.10
-1751.98	1175.53
-1749.14	1132.53
-1746.30	1253.36
-1743.47	1204.21
-1740.64	1208.30
-1737.81	1169.39
-1734.97	1366.00
-1732.14	1191.92
-1729.32	1069.04
-1726.49	1173.49
-1723.66	1064.94
-1720.84	1277.93
-1718.01	1103.86
-1715.19	1177.58
-1712.37	1130.48
-1709.55	1148.91
-1706.73	1085.42
-1703.91	1290.22
-1701.09	1081.33
-1698.27	1163.25
-1695.46	1167.34
-1692.65	1335.28
-1689.83	1218.54
-1687.02	1089.52
-1684.21	1220.59
-1681.40	1349.61
-1678.59	1339.37
-1675.78	1140.72
-1672.98	913.39
-1670.17	1200.11
-1667.37	1396.71
-1664.56	1206.25
-1661.76	1292.27
-1658.96	1173.49
-1656.16	1259.50
-1653.36	1255.40
-1650.57	1153.01
-1647.77	1214.45
-1644.97	1126.38
-1642.18	1058.80
-1639.39	1148.91
-1636.60	1116.14
-1633.80	1130.48
-1631.01	1198.06
-1628.23	1261.55
-1625.44	1146.86
-1622.65	1228.78
-1619.87	1273.84
-1617.08	1316.84
-1614.30	1204.21
-1611.52	1253.36
-1608.74	1167.34
-1605.96	1202.16
-1603.18	1150.96
-1600.40	1265.64
-1597.62	1245.17
-1594.85	1216.49
-1592.07	1300.46
-1589.30	1023.98
-1586.53	1208.30
-1583.76	1103.86
-1580.99	1114.10
-1578.22	1243.12
-1575.45	1073.14
-1572.68	1241.07
-1569.92	1048.56
-1567.15	1097.71
-1564.39	1077.23
-1561.63	1181.68
-1558.86	1222.64
-1556.10	1105.90
-1553.34	1204.21
-1550.59	1046.51
-1547.83	1228.78
-1545.07	1279.98
-1542.32	1273.84
-1539.56	1298.41
-1536.81	1245.16
-1534.06	983.02
-1531.31	1218.54
-1528.56	1255.40
-1525.81	1198.06
-1523.06	1187.82
-1520.32	1267.69
-1517.57	974.83
-1514.83	1212.40
-1512.09	1314.80
-1509.34	1253.36
-1506.60	1165.29
-1503.86	1253.36
-1501.12	1073.14
-1498.39	1077.23
-1495.65	892.91
-1492.91	1095.66
-1490.18	1034.22
-1487.45	1013.74
-1484.71	874.48
-1481.98	1087.47
-1479.25	1200.11
-1476.52	1120.24
-1473.80	1118.19
-1471.07	1120.24
-1468.34	1167.34
-1465.62	1183.73
-1462.89	1144.81
-1460.17	1169.39
-1457.45	927.73
-1454.73	1218.54
-1452.01	1255.40
-1449.29	1099.76
-1446.57	1001.46
-1443.86	1255.40
-1441.14	1421.29
-1438.43	1048.56
-1435.71	968.69
-1433.00	1126.38
-1430.29	1077.23
-1427.58	974.83
-1424.87	892.91
-1422.16	1054.70
-1419.46	1023.98
-1416.75	1019.89
-1414.05	1171.44
-1411.34	1277.93
-1408.64	1212.40
-1405.94	1163.25
-1403.24	1185.77
-1400.54	1062.90
-1397.84	-329.72
-1395.14	1105.90
-1392.45	1277.93
-1389.75	1107.95
-1387.06	1202.16
-1384.36	1290.22
-1381.67	1028.08
-1378.98	1058.80
-1376.29	1247.21
-1373.60	1279.98
-1370.91	1198.06
-1368.23	1132.53
-1365.54	1331.18
-1362.86	1249.26
-1360.17	1376.23
-1357.49	1165.29
-1354.81	1200.11
-1352.13	1232.88
-1349.45	1253.36
-1346.77	1304.56
-1344.09	1390.57
-1341.42	1294.32
-1338.74	1265.64
-1336.07	1169.39
-1333.39	1185.77
-1330.72	1021.94
-1328.05	1126.38
-1325.38	1245.17
-1322.71	1132.53
-1320.04	1044.46
-1317.37	1093.62
-1314.71	1112.05
-1312.04	1107.95
-1309.38	1175.53
-1306.72	1245.16
-1304.05	1032.18
-1301.39	966.64
-1298.73	1052.66
-1296.08	1112.05
-1293.42	1017.84
-1290.76	1105.90
-1288.10	1064.94
-1285.45	1097.71
-1282.80	1023.98
-1280.14	1017.84
-1277.49	1097.71
-1274.84	1110.00
-1272.19	1171.44
-1269.54	1142.77
-1266.90	1173.49
-1264.25	1116.14
-1261.60	1163.25
-1258.96	1189.87
-1256.32	1099.76
-1253.67	1134.57
-1251.03	1245.16
-1248.39	1148.91
-1245.75	1132.53
-1243.11	1245.16
-1240.48	1134.57
-1237.84	1030.13
-1235.20	1165.29
-1232.57	1066.99
-1229.94	1034.22
-1227.31	1107.95
-1224.67	1124.33
-1222.04	972.79
-1219.41	913.39
-1216.79	1038.32
-1214.16	1036.27
-1211.53	923.63
-1208.91	1021.94
-1206.28	1177.58
-1203.66	1036.27
-1201.04	1415.15
-1198.42	1116.14
-1195.80	952.31
-1193.18	1200.11
-1190.56	1181.68
-1187.94	1204.21
-1185.33	1220.59
-1182.71	1087.47
-1180.10	1107.95
-1177.49	1023.98
-1174.87	1210.35
-1172.26	1136.62
-1169.65	1054.70
-1167.04	1142.77
-1164.44	1198.06
-1161.83	962.55
-1159.22	952.31
-1156.62	1136.62
-1154.01	1130.48
-1151.41	1032.18
-1148.81	1013.74
-1146.21	1026.03
-1143.61	997.36
-1141.01	1036.27
-1138.41	1114.10
-1135.81	1212.40
-1133.22	931.83
-1130.62	1030.13
-1128.03	1136.62
-1125.44	1097.71
-1122.84	1048.56
-1120.25	1030.13
-1117.66	1361.90
-1115.07	1056.75
-1112.49	1046.51
-1109.90	974.83
-1107.31	976.88
-1104.73	1077.23
-1102.14	1026.03
-1099.56	966.64
-1096.98	1032.18
-1094.40	913.39
-1091.82	978.93
-1089.24	1062.90
-1086.66	1159.15
-1084.08	1110.00
-1081.51	1181.68
-1078.93	1034.22
-1076.36	1146.86
-1073.79	1249.26
-1071.21	993.26
-1068.64	1150.96
-1066.07	1204.21
-1063.50	974.83
-1060.93	1054.70
-1058.37	1222.64
-1055.80	1146.86
-1053.24	1228.78
-1050.67	1101.81
-1048.11	1148.91
-1045.55	1028.08
-1042.99	1105.90
-1040.42	1081.33
-1037.87	1189.87
-1035.31	1066.99
-1032.75	962.55
-1030.19	1126.38
-1027.64	1001.46
-1025.08	1003.50
-1022.53	1071.09
-1019.98	835.57
-1017.43	968.69
-1014.88	983.03
-1012.33	1003.50
-1009.78	989.17
-1007.23	958.45
-1004.68	978.93
-1002.14	817.14
-999.59	1040.37
-997.05	1042.42
-994.51	1021.94
-991.96	1011.70
-989.42	1034.22
-986.88	935.92
-984.34	1200.11
-981.81	1069.04
-979.27	940.02
-976.73	987.12
-974.20	901.11
-971.66	1034.22
-969.13	937.97
-966.60	1112.05
-964.07	821.24
-961.54	911.35
-959.01	1091.57
-956.48	964.59
-953.95	1046.51
-951.43	1159.15
-948.90	1120.24
-946.38	1112.05
-943.85	1019.89
-941.33	1128.43
-938.81	1081.33
-936.29	1116.14
-933.77	1060.85
-931.25	1157.10
-928.73	886.77
-926.22	899.06
-923.70	1007.60
-921.19	1064.94
-918.67	1089.52
-916.16	978.93
-913.65	964.59
-911.14	1267.69
-908.63	1030.13
-906.12	935.92
-903.61	1056.75
-901.10	1005.55
-898.59	806.90
-896.09	866.29
-893.59	907.25
-891.08	1021.94
-888.58	966.64
-886.08	940.02
-883.58	1017.84
-881.08	1120.24
-878.58	1056.75
-876.08	995.31
-873.58	1157.10
-871.09	1017.84
-868.59	1095.66
-866.10	993.26
-863.61	821.24
-861.12	931.83
-858.62	1079.28
-856.13	1001.46
-853.64	1032.18
-851.16	1060.85
-848.67	868.34
-846.18	1112.05
-843.70	1005.55
-841.21	1066.99
-838.73	1062.90
-836.25	915.44
-833.77	907.25
-831.28	1077.23
-828.81	1023.98
-826.33	1097.71
-823.85	1073.14
-821.37	1015.79
-818.90	1048.56
-816.42	1116.14
-813.95	929.78
-811.47	1005.55
-809.00	755.70
-806.53	1099.76
-804.06	997.36
-801.59	702.45
-799.12	1064.94
-796.65	1167.34
-794.19	937.97
-791.72	1046.51
-789.26	991.22
-786.79	1101.81
-784.33	1089.52
-781.87	1148.91
-779.41	1042.42
-776.95	1128.43
-774.49	1128.43
-772.03	1171.44
-769.57	1032.18
-767.12	1181.68
-764.66	1079.28
-762.21	1134.57
-759.75	1011.70
-757.30	1036.27
-754.85	1107.95
-752.40	1073.14
-749.95	1091.57
-747.50	1165.29
-745.05	1064.94
-742.60	1134.57
-740.16	1062.90
-737.71	1009.65
-735.27	964.59
-732.82	1110.00
-730.38	999.41
-727.94	1114.09
-725.50	1058.80
-723.06	890.87
-720.62	1118.19
-718.18	1087.47
-715.74	1058.80
-713.31	1273.84
-710.87	1241.07
-708.44	1150.96
-706.01	999.41
-703.57	1138.67
-701.14	1124.33
-698.71	1030.13
-696.28	1040.37
-693.85	1019.89
-691.42	993.26
-689.00	1155.05
-686.57	1079.28
-684.15	923.63
-681.72	1089.52
-679.30	1077.23
-676.88	901.11
-674.45	1165.29
-672.03	1021.94
-669.61	968.69
-667.20	1128.43
-664.78	1015.79
-662.36	1093.62
-659.94	1155.05
-657.53	1120.24
-655.12	1050.61
-652.70	1099.76
-650.29	980.98
-647.88	1134.57
-645.47	1071.09
-643.06	1071.09
-640.65	903.15
-638.24	960.50
-635.83	1114.09
-633.43	1052.66
-631.02	907.25
-628.62	1060.85
-626.22	950.26
-623.81	1103.86
-621.41	974.83
-619.01	1013.74
-616.61	1052.66
-614.21	1001.46
-611.81	972.79
-609.42	1122.29
-607.02	1099.76
-604.63	1069.04
-602.23	1185.77
-599.84	995.31
-597.45	1060.85
-595.05	1114.10
-592.66	911.35
-590.27	1140.72
-587.88	1091.57
-585.50	919.54
-583.11	1183.73
-580.72	942.07
-578.34	1026.03
-575.95	1048.56
-573.57	1066.99
-571.19	978.93
-568.80	1052.66
-566.42	993.26
-564.04	1050.61
-561.66	907.25
-559.29	1015.79
-556.91	1003.50
-554.53	1107.95
-552.16	1148.91
-549.78	1107.95
-547.41	843.76
-545.03	1122.29
-542.66	974.83
-540.29	960.50
-537.92	1032.18
-535.55	1073.14
-533.18	1028.08
-530.81	1001.46
-528.45	989.17
-526.08	1091.57
-523.72	937.97
-521.35	913.39
-518.99	935.92
-516.63	851.95
-514.27	917.49
-511.90	974.83
-509.54	1058.80
-507.19	997.36
-504.83	989.17
-502.47	1056.75
-500.11	1196.01
-497.76	1230.83
-495.40	1019.89
-493.05	1153.01
-490.70	1058.80
-488.35	1058.80
-486.00	1265.64
-483.65	1361.90
-481.30	1153.01
-478.95	1230.83
-476.60	1169.39
-474.25	1044.46
-471.91	1058.80
-469.56	1042.42
-467.22	1107.95
-464.88	1277.93
-462.53	1089.52
-460.19	935.92
-457.85	976.88
-455.51	995.31
-453.17	960.50
-450.84	1036.27
-448.50	1093.62
-446.16	1101.81
-443.83	1021.94
-441.49	1058.80
-439.16	1300.46
-436.83	954.35
-434.50	962.55
-432.16	1161.20
-429.83	1196.01
-427.50	1069.04
-425.18	1050.61
-422.85	1173.49
-420.52	1032.18
-418.20	1245.17
-415.87	972.79
-413.55	1148.91
-411.22	1046.51
-408.90	1136.62
-406.58	825.33
-404.26	989.17
-401.94	911.35
-399.62	915.44
-397.30	872.43
-394.99	1007.60
-392.67	1009.65
-390.35	1054.70
-388.04	944.11
-385.73	929.78
-383.41	915.44
-381.10	878.58
-378.79	989.17
-376.48	964.59
-374.17	890.87
-371.86	923.63
-369.55	942.07
-367.25	1148.91
-364.94	964.59
-362.64	1095.66
-360.33	931.83
-358.03	931.83
-355.73	1130.48
-353.42	1011.70
-351.12	911.35
-348.82	1181.68
-346.52	1124.33
-344.23	1028.08
-341.93	1091.57
-339.63	1017.84
-337.34	1062.90
-335.04	1040.37
-332.75	1116.14
-330.45	1193.97
-328.16	1161.20
-325.87	974.83
-323.58	937.97
-321.29	1013.74
-319.00	1066.99
-316.71	1124.33
-314.42	985.07
-312.14	1042.42
-309.85	1056.75
-307.57	802.80
-305.28	991.22
-303.00	991.22
-300.72	929.78
-298.44	1071.09
-296.16	1103.86
-293.88	917.49
-291.60	1042.42
-289.32	903.15
-287.04	1052.66
-284.77	1071.09
-282.49	1124.33
-280.22	1036.27
-277.94	1130.48
-275.67	1071.09
-273.40	1136.62
-271.13	890.87
-268.85	1028.08
-266.59	1069.04
-264.32	1007.60
-262.05	1128.43
-259.78	1157.10
-257.51	804.85
-255.25	1112.05
-252.98	989.17
-250.72	1075.18
-248.46	1036.27
-246.20	985.07
-243.93	1015.79
-241.67	1177.58
-239.41	1015.79
-237.16	1116.14
-234.90	1071.09
-232.64	1015.79
-230.38	935.92
-228.13	937.97
-225.87	880.63
-223.62	913.39
-221.37	876.53
-219.11	980.98
-216.86	1021.94
-214.61	956.40
-212.36	1021.94
-210.11	929.78
-207.87	1073.14
-205.62	1079.28
-203.37	1081.33
-201.13	892.91
-198.88	1128.43
-196.64	995.31
-194.39	1050.61
-192.15	1226.73
-189.91	1105.90
-187.67	968.69
-185.43	1095.66
-183.19	892.91
-180.95	1081.33
-178.72	1052.66
-176.48	909.30
-174.24	1185.77
-172.01	1150.96
-169.77	782.32
-167.54	1089.52
-165.31	1110.00
-163.08	911.35
-160.85	1019.89
-158.62	1038.32
-156.39	952.31
-154.16	966.64
-151.93	1017.84
-149.70	1073.14
-147.48	780.28
-145.25	909.30
-143.03	1015.79
-140.81	1136.62
-138.58	1091.57
-136.36	1030.13
-134.14	1077.23
-131.92	1144.81
-129.70	1136.62
-127.48	1005.55
-125.26	1030.13
-123.05	1112.05
-120.83	929.78
-118.62	1216.49
-116.40	952.31
-114.19	839.67
-111.97	983.03
-109.76	1054.70
-107.55	937.97
-105.34	1046.51
-103.13	937.97
-100.92	1066.99
-98.71	958.45
-96.51	1093.62
-94.30	1107.95
-92.09	1028.08
-89.89	1050.61
-87.69	1019.89
-85.48	880.63
-83.28	946.16
-81.08	983.03
-78.88	1009.65
-76.68	970.74
-74.48	917.49
-72.28	1128.43
-70.08	1046.51
-67.88	1038.32
-65.69	1021.94
-63.49	1011.70
-61.30	991.22
-59.11	1003.50
-56.91	1081.33
-54.72	1017.84
-52.53	999.41
-50.34	864.24
-48.15	1157.10
-45.96	991.22
-43.77	1132.53
-41.59	942.07
-39.40	1021.94
-37.21	1110.00
-35.03	1005.55
-32.84	970.74
-30.66	968.69
-28.48	1034.22
-26.30	1001.46
-24.12	839.67
-21.94	1044.46
-19.76	1118.19
-17.58	1738.73
-15.40	2183.13
-13.22	3379.15
-11.05	4679.61
-8.87	5162.93
-6.70	5846.95
-4.52	6424.48
-2.35	6195.11
-0.18	6256.54
1.99	6246.30
4.16	5783.46
6.33	4988.85
8.50	4177.86
10.67	3696.58
12.84	3266.51
15.00	2818.00
17.17	2781.14
19.33	2371.55
21.50	2078.69
23.66	1822.69
25.83	1708.01
27.99	1511.40
30.15	1298.41
32.31	1120.24
34.47	1015.79
36.63	980.98
38.79	1212.40
40.94	882.67
43.10	997.36
45.25	1069.04
47.41	1007.60
49.56	1062.90
51.72	1038.32
53.87	1052.66
56.02	1015.79
58.17	1105.90
60.32	1075.18
62.47	1161.20
64.62	933.87
66.77	1017.84
68.92	964.59
71.06	1089.52
73.21	948.21
75.35	933.87
77.50	1095.66
79.64	1026.03
81.78	1017.84
83.92	923.63
86.06	931.83
88.20	1097.71
90.34	1011.70
92.48	1099.76
94.62	1048.56
96.76	1001.46
98.89	983.03
101.03	993.26
103.16	849.91
105.30	1038.32
107.43	1259.50
109.56	1054.70
111.69	1093.62
113.82	1126.38
115.95	1028.08
118.08	1097.71
120.21	1173.49
122.34	1021.94
124.47	1196.01
126.59	1177.58
128.72	1017.84
130.84	940.02
132.97	1171.44
135.09	983.02
137.21	1042.42
139.33	1048.56
141.45	1007.60
143.57	1228.78
145.69	1140.72
147.81	1191.92
149.93	1275.88
152.05	1308.65
154.16	1460.20
156.28	1224.69
158.39	1337.32
160.51	1341.42
162.62	1429.48
164.73	1458.15
166.85	1277.93
168.96	1185.77
171.07	1234.93
173.18	1210.35
175.28	1224.69
177.39	1261.55
179.50	1361.90
181.61	1306.60
183.71	1406.95
185.82	1273.84
187.92	1421.29
190.02	1472.49
192.13	1343.47
194.23	1345.52
196.33	1495.02
198.43	1460.20
200.53	1437.67
202.63	1335.28
204.72	1521.64
206.82	1304.56
208.92	1531.88
211.01	1363.95
213.11	1546.22
215.20	1574.89
217.30	1701.86
219.39	1603.56
221.48	1808.36
223.57	1615.85
225.66	1855.46
227.75	1810.40
229.84	1904.61
231.93	1898.47
234.02	2187.23
236.10	2357.21
238.19	2693.08
240.28	3317.71
242.36	3780.55
244.44	4730.81
246.53	5908.39
248.61	7487.37
250.69	9568.11
252.77	11454.29
254.85	12977.98
256.93	14470.95
259.01	14831.39
261.09	15341.33
263.16	14941.98
265.24	14446.37
267.32	13029.18
269.39	11904.84
271.46	10643.29
273.54	9000.82
275.61	7978.89
277.68	6406.05
279.75	5427.12
281.82	4726.71
283.89	4351.93
285.96	3479.50
288.03	3069.91
290.10	2836.44
292.16	2400.22
294.23	2260.96
296.29	2170.85
298.36	2131.94
300.42	1943.52
302.49	1843.17
304.55	1789.92
306.61	1828.84
308.67	1597.42
310.73	1630.18
312.79	1787.88
314.85	1734.63
316.90	1693.67
318.96	1685.48
321.02	1525.74
323.07	1712.10
325.13	1656.81
327.18	1601.51
329.24	1560.55
331.29	1583.08
333.34	1779.68
335.39	1578.98
337.44	1824.74
339.49	1755.11
341.54	1775.59
343.59	1843.17
345.64	1888.23
347.68	2068.45
349.73	2426.84
351.77	2521.05
353.82	2944.98
355.86	3397.58
357.90	3825.61
359.95	4177.86
361.99	4470.72
364.03	4919.22
366.07	4820.92
368.11	4616.12
370.15	4417.47
372.19	4227.01
374.22	3655.62
376.26	3547.08
378.29	3256.27
380.33	2789.33
382.36	2611.16
384.40	2359.26
386.43	2392.03
388.46	2271.20
390.49	2068.45
392.52	1925.09
394.55	1877.99
396.58	1869.80
398.61	1843.17
400.64	1495.02
402.67	1660.90
404.69	1558.50
406.72	1681.38
408.74	1568.74
410.77	1640.42
412.79	1509.35
414.81	1474.54
416.84	1517.54
418.86	1378.28
420.88	1421.29
422.90	1386.47
424.92	1468.39
426.94	1382.38
428.95	1476.59
430.97	1421.29
432.99	1298.41
435.00	1277.93
437.02	1183.73
439.03	1286.12
441.04	1247.21
443.06	1222.64
445.07	1304.56
447.08	1439.72
449.09	1249.26
451.10	1386.47
453.11	1355.76
455.12	1552.36
457.13	1386.47
459.13	1409.00
461.14	1409.00
463.14	1265.64
465.15	1167.34
467.15	1374.19
469.16	1245.16
471.16	1335.28
473.16	985.07
475.16	1269.74
477.16	1165.29
479.16	1230.83
481.16	1329.13
483.16	1075.18
485.16	1269.74
487.15	1269.74
489.15	1245.17
491.15	1253.36
493.14	1077.23
495.14	1103.86
497.13	1200.11
499.12	1284.08
501.11	1069.04
503.11	1255.40
505.10	1275.88
507.09	1226.73
509.07	1124.33
511.06	1101.81
513.05	1083.38
515.04	1193.97
517.02	1218.54
519.01	1331.18
521.00	1220.59
522.98	1132.53
524.96	1183.73
526.95	1167.34
528.93	1105.90
530.91	1282.03
532.89	1173.49
534.87	1329.13
536.85	1200.11
538.83	1200.11
540.81	1335.28
542.78	1228.78
544.76	1284.08
546.74	1310.70
548.71	1357.80
550.69	1114.10
552.66	1146.86
554.63	1150.96
556.60	1191.92
558.58	1130.48
560.55	1236.97
562.52	1128.43
564.49	1114.09
566.46	1161.20
568.42	1196.01
570.39	1325.04
572.36	1173.49
574.32	1114.10
576.29	1116.14
578.25	1265.64
580.22	1116.14
582.18	1064.94
584.14	1404.91
586.11	1300.46
588.07	1241.07
590.03	1288.17
591.99	1224.69
593.95	1177.58
595.90	1103.86
597.86	1234.93
599.82	1243.12
601.78	1169.39
603.73	1343.47
605.69	1165.29
607.64	1105.90
609.59	1107.95
611.55	1089.52
613.50	1140.72
615.45	1202.16
617.40	1107.95
619.35	1374.19
621.30	1292.27
623.25	1366.00
625.20	1241.07
627.15	1480.68
629.09	1380.33
631.04	1476.59
632.98	1441.77
634.93	1337.32
636.87	1460.20
638.82	1263.60
640.76	1363.95
642.70	1284.08
644.64	1476.59
646.58	1372.14
648.52	1325.04
650.46	1284.08
652.40	1218.54
654.34	1458.15
656.27	1562.60
658.21	1791.97
660.15	2125.79
662.08	2152.42
664.02	2252.77
665.95	2244.57
667.88	2283.49
669.82	2234.33
671.75	2389.98
673.68	2121.70
675.61	1918.95
677.54	1816.55
679.47	1789.92
681.40	1785.83
683.32	1550.31
685.25	1562.60
687.18	1529.83
689.10	1562.60
691.03	1415.15
692.95	1325.04
694.87	1204.21
696.80	1411.05
698.72	1435.63
700.64	1497.07
702.56	1325.04
704.48	1409.00
706.40	1316.84
708.32	1306.60
710.24	1435.63
712.16	1550.31
714.07	1505.26
715.99	1505.26
717.90	1689.57
719.82	1718.25
721.73	1687.53
723.65	1732.58
725.56	1736.68
727.47	1886.18
729.38	2023.39
731.29	2015.20
733.20	2160.61
735.11	2404.32
737.02	2525.15
738.93	2555.86
740.84	2977.75
742.74	3225.55
744.65	3557.32
746.55	4016.07
748.46	4054.98
750.36	4231.10
752.27	4544.44
754.17	4669.37
756.07	4868.02
757.97	4880.31
759.87	4831.16
761.77	5126.07
763.67	4857.78
765.57	4845.49
767.47	4673.46
769.37	4822.97
771.26	4462.52
773.16	4184.00
775.06	3989.44
776.95	3829.70
778.84	3813.32
780.74	3332.05
782.63	2983.89
784.52	2967.51
786.41	2801.62
788.30	2650.07
790.19	2299.87
792.08	2197.47
793.97	2248.67
795.86	1927.14
797.75	1822.69
799.63	1716.20
801.52	1724.39
803.41	1519.59
805.29	1671.14
807.18	1316.84
809.06	1421.29
810.94	1509.35
812.82	1320.94
814.70	1419.24
816.59	1368.04
818.47	1298.41
820.35	1308.65
822.22	1257.45
824.10	1312.75
825.98	1343.47
827.86	1394.67
829.73	1236.97
831.61	1208.30
833.48	1140.72
835.36	1138.67
837.23	1202.16
839.10	1206.25
840.98	1298.41
842.85	1314.80
844.72	1046.51
846.59	1212.40
848.46	1181.68
850.33	1296.36
852.20	1138.67
854.06	1294.32
855.93	1265.64
857.80	1165.29
859.66	1366.00
861.53	1066.99
863.39	1216.49
865.26	1202.16
867.12	1224.69
868.98	1003.50
870.84	978.93
872.71	1112.05
874.57	1093.62
876.43	1042.42
878.29	1116.14
880.14	1048.56
882.00	1169.39
883.86	954.35
885.72	1257.45
887.57	1126.38
889.43	1134.57
891.28	1171.44
893.14	1216.49
894.99	1150.96
896.84	1228.78
898.69	1150.96
900.55	1095.66
902.40	1193.97
904.25	987.12
906.10	1013.74
907.95	1140.72
909.79	1376.24
911.64	1085.42
913.49	1206.25
915.34	1146.86
917.18	1144.81
919.03	1126.38
920.87	1021.94
922.71	1046.51
924.56	1153.01
926.40	1132.53
928.24	1196.01
930.08	1097.71
931.92	1218.54
933.76	1230.83
935.60	1300.46
937.44	1290.22
939.28	1134.57
941.12	1038.32
942.95	1234.93
944.79	1236.97
946.62	1097.71
948.46	968.69
950.29	1097.71
952.13	1189.87
953.96	1241.07
955.79	1089.52
957.62	1228.78
959.46	1112.05
961.29	1085.42
963.12	1122.29
964.94	1023.98
966.77	1269.74
968.60	1181.68
970.43	1161.20
972.25	1153.01
974.08	1095.66
975.91	1138.67
977.73	1095.66
979.55	1263.60
981.38	1245.16
983.20	1019.89
985.02	1118.19
986.84	1079.28
988.66	1013.74
990.49	1107.95
992.30	1034.22
994.12	1087.47
995.94	1204.21
997.76	1028.08
999.58	1159.15
1001.39	1175.53
1003.21	1200.11
1005.02	1044.46
1006.84	1189.87
1008.65	1292.27
1010.47	1263.60
1012.28	1040.37
1014.09	1202.16
1015.90	1298.41
1017.71	1167.34
1019.52	1249.26
1021.33	1183.73
1023.14	1236.97
1024.95	1110.00
1026.76	1085.42
1028.56	1142.77
1030.37	1286.12
1032.18	1073.14
1033.98	1210.35
1035.79	1173.49
1037.59	1105.90
1039.39	1193.97
1041.20	1304.56
1043.00	1021.94
1044.80	1230.83
1046.60	1284.08
1048.40	1239.02
1050.20	1220.59
1052.00	1138.67
1053.80	1185.77
1055.59	983.03
1057.39	1118.19
1059.19	1034.22
1060.98	1112.05
1062.78	1099.76
1064.57	976.88
1066.37	974.83
1068.16	1064.94
1069.95	1146.86
1071.75	1066.99
1073.54	1030.13
1075.33	1191.92
1077.12	1183.73
1078.91	1023.98
1080.70	1269.74
1082.48	1136.62
1084.27	993.26
1086.06	1075.18
1087.85	966.64
1089.63	1026.03
1091.42	1101.81
1093.20	1196.01
1094.99	1011.70
1096.77	1110.00
1098.55	1298.41
1100.33	1087.47
1102.12	1245.16
1103.90	1163.25
1105.68	1169.39
1107.46	1220.59
1109.24	1259.50
1111.01	1400.81
1112.79	1161.20
1114.57	1206.25
1116.35	1173.49
1118.12	1169.39
1119.90	1193.97
1121.67	1071.09
1123.45	1236.97
1125.22	1155.05
1126.99	1322.99
1128.77	1298.41
1130.54	1198.06
1132.31	1101.81
1134.08	1345.52
1135.85	1198.06
1137.62	1171.44
1139.39	985.07
1141.15	1126.38
1142.92	1339.37
1144.69	1208.30
1146.46	1157.10
1148.22	1245.16
1149.99	1331.18
1151.75	1304.56
1153.51	1263.60
1155.28	1105.90
1157.04	1220.59
1158.80	1286.12
1160.56	1196.01
1162.32	1114.10
1164.08	1110.00
1165.84	1261.55
1167.60	1042.42
1169.36	1193.97
1171.12	1087.47
1172.88	1296.36
1174.63	1236.97
1176.39	1247.21
1178.14	1193.97
1179.90	1101.81
1181.65	1169.39
1183.41	1210.35
1185.16	1296.36
1186.91	1116.14
1188.66	1400.81
1190.41	1355.76
1192.16	1337.32
1193.91	1269.74
1195.66	1396.71
1197.41	1470.44
1199.16	1431.53
1200.91	1624.04
1202.66	1581.03
1204.40	1701.86
1206.15	1925.09
1207.89	1847.27
1209.64	2111.46
1211.38	2295.77
1213.12	2318.30
1214.87	2277.34
1216.61	2514.91
1218.35	2439.13
1220.09	2394.08
1221.83	2383.84
1223.57	2195.42
1225.31	2291.68
1227.05	2039.78
1228.79	1740.77
1230.52	1841.12
1232.26	1527.78
1234.00	1837.03
1235.73	1525.74
1237.47	1445.87
1239.20	1419.24
1240.94	1392.62
1242.67	1552.36
1244.40	1447.91
1246.13	1277.93
1247.86	1374.19
1249.60	1263.60
1251.33	1255.40
1253.06	1368.04
1254.78	1112.05
1256.51	1249.26
1258.24	1306.60
1259.97	1382.38
1261.69	1284.08
1263.42	1222.64
1265.15	1112.05
1266.87	1144.81
1268.59	1023.98
1270.32	1013.74
1272.04	1038.32
1273.76	1118.19
1275.49	954.35
1277.21	1017.84
1278.93	1003.50
1280.65	968.69
1282.37	1069.04
1284.09	983.03
1285.81	1083.38
1287.52	1060.85
1289.24	1069.04
1290.96	909.30
1292.67	1081.33
1294.39	1087.47
1296.10	1101.81
1297.82	958.45
1299.53	1099.76
1301.24	962.55
1302.96	1193.97
1304.67	1196.01
1306.38	1234.93
1308.09	1095.66
1309.80	841.72
1311.51	1234.93
1313.22	1105.90
1314.93	1089.52
1316.64	1112.05
1318.34	1103.86
1320.05	978.93
1321.75	1126.38
1323.46	1071.09
1325.17	968.69
1326.87	1064.94
1328.57	1107.95
1330.28	1097.71
1331.98	1040.37
1333.68	1069.04
1335.38	987.12
1337.08	1142.77
1338.78	1187.82
1340.48	1169.39
1342.18	1079.28
1343.88	1021.94
1345.58	1050.61
1347.28	1019.89
1348.97	999.41
1350.67	980.98
1352.36	1021.94
1354.06	1087.47
1355.75	1146.86
1357.45	1032.18
1359.14	1069.04
1360.83	1089.52
1362.53	1118.19
1364.22	1046.51
1365.91	1060.85
1367.60	985.07
1369.29	1230.83
1370.98	948.21
1372.67	1216.49
1374.35	1144.81
1376.04	1308.65
1377.73	1320.94
1379.41	1181.68
1381.10	1216.49
1382.79	1284.08
1384.47	1128.43
1386.15	1165.29
1387.84	1032.18
1389.52	1087.47
1391.20	1040.37
1392.88	1243.12
1394.57	1011.70
1396.25	1087.47
1397.93	1048.56
1399.61	1087.47
1401.28	1009.65
1402.96	1185.77
1404.64	1062.90
1406.32	1122.29
1407.99	1232.88
1409.67	1236.97
1411.35	1122.29
1413.02	1255.40
1414.70	1034.22
1416.37	1179.63
1418.04	1091.57
1419.71	1177.58
1421.39	980.98
1423.06	1118.19
1424.73	1056.75
1426.40	1179.63
1428.07	1079.28
1429.74	1120.24
1431.41	1122.29
1433.08	1322.99
1434.74	985.07
1436.41	1015.79
1438.08	991.22
1439.74	1292.27
1441.41	1187.82
1443.07	864.24
1444.74	1081.33
1446.40	1118.19
1448.06	1206.25
1449.72	1130.48
1451.39	1130.48
1453.05	1169.39
1454.71	1325.04
1456.37	1198.06
1458.03	1300.46
1459.69	1277.93
1461.35	1292.27
1463.00	1333.23
1464.66	989.17
1466.32	1169.39
1467.97	1040.37
1469.63	1302.51
1471.28	1208.30
1472.94	1114.10
1474.59	1146.86
1476.25	915.44
1477.90	1335.28
1479.55	1189.87
1481.20	1134.57
1482.85	1230.83
1484.50	1179.63
1486.15	1282.03
1487.80	1173.49
1489.45	1169.39
1491.10	1144.81
1492.75	1216.49
1494.40	1079.28
1496.04	1353.71
1497.69	1269.74
1499.33	1366.00
1500.98	1206.25
1502.62	1288.17
1504.27	1322.99
1505.91	1380.33
1507.55	1308.65
1509.19	1382.38
1510.84	1204.21
1512.48	1406.95
1514.12	1251.31
1515.76	1206.25
1517.40	1173.49
1519.04	1380.33
1520.67	1243.12
1522.31	1370.09
1523.95	1298.41
1525.59	1288.17
1527.22	1232.88
1528.86	1374.19
1530.49	1218.54
1532.13	1374.19
1533.76	1298.41
1535.39	1327.08
1537.03	1314.80
1538.66	1026.03
1540.29	1247.21
1541.92	1243.12
1543.55	1216.49
1545.18	1189.87
1546.81	1112.05
1548.44	1030.13
1550.07	1191.92
1551.70	1169.39
1553.32	1001.46
1554.95	1232.88
1556.58	1001.46
1558.20	1130.48
1559.83	1122.29
1561.45	1120.24
1563.07	1060.85
1564.70	999.41
1566.32	1101.81
1567.94	1120.24
1569.56	970.74
1571.19	1232.88
1572.81	1085.42
1574.43	1232.88
1576.05	1114.10
1577.66	974.83
1579.28	1103.86
1580.90	1064.94
1582.52	1050.61
1584.14	1075.18
1585.75	931.83
1587.37	1066.99
1588.98	1222.64
1590.60	1009.65
1592.21	1028.08
1593.82	1146.86
1595.44	1144.81
1597.05	1050.61
1598.66	1093.62
1600.27	1103.86
1601.88	995.31
1603.49	1224.69
1605.10	1030.13
1606.71	1103.86
1608.32	1005.55
1609.93	1181.68
1611.54	954.35
1613.14	1095.66
1614.75	1001.46
1616.36	1060.85
1617.96	1060.85
1619.57	1038.32
1621.17	1075.18
1622.77	1077.23
1624.38	833.52
1625.98	897.01
1627.58	1134.57
1629.18	1075.18
1630.78	1150.96
1632.38	1175.53
1633.98	1138.67
1635.58	1007.60
1637.18	1071.09
1638.78	1167.34
1640.38	1159.15
1641.98	1204.21
1643.57	1136.62
1645.17	974.83
1646.76	854.00
1648.36	1073.14
1649.95	1138.67
1651.55	1015.79
1653.14	999.41
1654.73	1052.66
1656.33	1081.33
1657.92	1079.28
1659.51	1185.77
1661.10	1077.23
1662.69	1091.57
1664.28	1044.46
1665.87	1030.13
1667.46	1013.74
1669.05	1044.46
1670.63	1144.81
1672.22	1073.14
1673.81	1150.96
1675.39	1009.65
1676.98	1036.27
1678.56	929.78
1680.15	1048.56
1681.73	788.47
1683.31	1005.55
1684.90	972.79
1686.48	1054.70
1688.06	1163.25
1689.64	1081.33
1691.22	1140.72
1692.80	1259.50
1694.38	1042.42
1695.96	1167.34
1697.54	1370.09
1699.12	1097.71
1700.69	1136.62
1702.27	1114.10
1703.85	1140.72
1705.42	1163.25
1707.00	944.11
1708.57	946.16
1710.15	960.50
1711.72	1110.00
1713.29	1009.65
1714.87	989.17
1716.44	1015.79
1718.01	1060.85
1719.58	993.26
1721.15	843.76
1722.72	1013.74
1724.29	987.12
1725.86	892.91
1727.43	929.78
1729.00	901.11
1730.56	1073.14
1732.13	1036.27
1733.70	1036.27
1735.26	1001.46
1736.83	952.31
1738.39	1128.43
1739.96	944.11
1741.52	1126.38
1743.08	1015.79
1744.65	987.12
1746.21	919.54
1747.77	960.50
1749.33	944.11
1750.89	1064.94
1752.45	1177.58
1754.01	927.73
1755.57	1062.90
1757.13	931.83
1758.69	976.88
1760.24	935.92
1761.80	993.26
1763.36	1171.44
1764.91	942.07
1766.47	841.72
1768.02	1126.38
1769.58	1089.52
1771.13	1077.23
1772.68	1083.38
1774.24	835.57
1775.79	1062.90
1777.34	899.06
1778.89	1032.18
1780.44	1001.46
1781.99	858.10
1783.54	1089.52
1785.09	1001.46
1786.64	1165.29
1788.19	1167.34
1789.73	1228.78
1791.28	1044.46
1792.83	1103.86
1794.37	1071.09
1795.92	1286.12
1797.46	1142.77
1799.01	1038.32
1800.55	1083.38
1802.09	1144.81
1803.64	1005.55
1805.18	1112.05
1806.72	1073.14
1808.26	878.58
1809.80	1116.14
1811.34	927.73
1812.88	1026.03
1814.42	1052.66
1815.96	1050.61
1817.50	1085.42
1819.04	1044.46
1820.57	937.97
1822.11	1138.67
1823.65	894.96
1825.18	937.97
1826.72	831.48
1828.25	1140.72
1829.78	997.36
1831.32	1021.94
1832.85	987.12
1834.38	1101.81
1835.92	1062.90
1837.45	987.12
1838.98	999.41
1840.51	958.45
1842.04	1091.57
1843.57	870.39
1845.10	864.24
1846.62	1054.70
1848.15	1011.70
1849.68	1116.14
1851.21	1101.81
1852.73	1122.29
1854.26	847.86
1855.78	976.88
1857.31	1034.22
1858.83	974.83
1860.36	858.10
1861.88	1021.94
1863.40	868.34
1864.92	1015.79
1866.45	991.22
1867.97	921.59
1869.49	970.74
1871.01	972.79
1872.53	1157.10
1874.05	1005.55
1875.57	1079.28
1877.08	1013.74
1878.60	1097.71
1880.12	1023.98
1881.64	968.69
1883.15	911.35
1884.67	983.03
1886.18	1042.42
1887.70	1009.65
1889.21	995.31
1890.72	1048.56
1892.24	829.43
1893.75	1026.03
1895.26	964.59
1896.77	1019.89
1898.28	944.11
1899.79	1138.67
1901.30	1075.18
1902.81	1279.98
1904.32	1077.23
1905.83	1146.86
1907.34	1021.94
1908.85	1095.66
1910.35	921.59
1911.86	1030.13
1913.37	935.92
1914.87	1079.28
1916.38	839.67
1917.88	905.20
1919.39	997.36
1920.89	1015.79
1922.39	974.83
1923.89	997.36
1925.40	962.55
1926.90	1118.19
1928.40	966.64
1929.90	888.82
1931.40	1038.32
1932.90	1075.18
1934.40	1044.46
1935.90	980.98
1937.39	882.67
1938.89	917.49
1940.39	882.67
1941.89	925.68
1943.38	1112.05
1944.88	1064.94
1946.37	1038.32
1947.87	1077.23
1949.36	811.00
1950.85	929.78
1952.35	1056.75
1953.84	929.78
1955.33	1054.70
1956.82	946.16
1958.31	1060.85
1959.80	1128.43
1961.29	1021.94
1962.78	942.07
1964.27	909.30
1965.76	966.64
1967.25	1066.99
1968.74	1028.08
1970.22	1040.37
1971.71	968.69
1973.20	1028.08
1974.68	919.54
1976.17	880.63
1977.65	1062.90
1979.14	1013.74
1980.62	1075.18
1982.10	1019.89
1983.58	991.22
1985.07	892.91
1986.55	1013.74
1988.03	1021.94
1989.51	913.39
1990.99	933.87
1992.47	1048.56
1993.95	1048.56
1995.43	1011.70
1996.91	1019.89
1998.38	1128.43
1999.86	1036.27
2001.34	845.81
2002.81	1007.60
2004.29	1044.46
2005.76	985.07
2007.24	960.50
2008.71	991.22
2010.19	937.97
2011.66	1083.38
2013.13	901.11
2014.60	851.95
2016.08	780.28
2017.55	890.87
2019.02	1003.50
2020.49	894.96
2021.96	956.40
2023.43	935.92
2024.90	843.76
2026.36	913.39
2027.83	915.44
2029.30	794.61
2030.77	874.48
2032.23	966.64
2033.70	901.11
2035.16	1009.65
2036.63	921.59
2038.09	991.22
2039.56	952.31
2041.02	980.98
2042.48	931.83
2043.95	937.97
2045.41	983.02
2046.87	819.19
2048.33	987.12
2049.79	956.40
2051.25	899.06
2052.71	940.02
2054.17	876.53
2055.63	989.17
2057.09	899.06
2058.54	886.77
2060.00	985.07
2061.46	751.60
2062.91	1011.70
2064.37	921.59
2065.82	815.09
2067.28	1030.13
2068.73	1007.60
2070.19	944.11
2071.64	929.78
2073.09	935.92
2074.54	825.33
2076.00	927.73
2077.45	997.36
2078.90	821.24
2080.35	1003.50
2081.80	770.04
2083.25	958.45
2084.70	872.43
2086.14	854.00
2087.59	851.95
2089.04	745.46
2090.49	999.41
2091.93	894.96
2093.38	892.91
2094.83	782.32
2096.27	856.05
2097.71	684.02
2099.16	980.98
2100.60	786.42
2102.05	851.95
2103.49	1001.46
2104.93	874.48
2106.37	868.34
2107.81	751.60
2109.25	796.66
2110.69	815.09
2112.13	903.15
2113.57	956.40
2115.01	903.15
2116.45	751.60
2117.89	802.80
2119.33	735.22
2120.76	864.24
2122.20	921.59
2123.63	843.76
2125.07	985.07
2126.51	811.00
2127.94	858.10
2129.37	1007.60
2130.81	782.32
2132.24	829.43
2133.67	872.43
2135.11	915.44
2136.54	786.42
2137.97	835.57
2139.40	806.90
2140.83	894.96
2142.26	821.24
2143.69	753.65
2145.12	835.57
2146.55	788.47
2147.97	966.64
2149.40	802.80
2150.83	823.28
2152.25	958.45
2153.68	739.32
2155.11	876.53
2156.53	843.76
2157.96	798.71
2159.38	792.56
2160.80	819.19
2162.23	872.43
2163.65	710.65
2165.07	897.01
2166.49	851.95
2167.91	669.69
2169.33	856.05
2170.75	868.34
2172.17	919.54
2173.59	684.02
2175.01	913.39
2176.43	837.62
2177.85	843.76
2179.27	925.68
2180.68	802.80
2182.10	849.91
2183.52	776.18
2184.93	780.28
2186.35	933.87
2187.76	761.84
2189.18	901.11
2190.59	952.31
2192.00	776.18
2193.42	874.48
2194.83	694.26
2196.24	778.23
2197.65	786.42
2199.06	266.24
2200.47	804.85
2201.88	823.28
2203.29	811.00
2204.70	684.02
2206.11	837.62
2207.52	872.43
2208.93	854.00
2210.33	868.34
2211.74	831.48
2213.15	802.80
2214.55	733.17
2215.96	696.31
2217.36	835.57
2218.77	866.29
2220.17	722.93
2221.57	724.98
2222.98	741.36
2224.38	913.39
2225.78	692.21
2227.18	659.45
2228.58	811.00
2229.99	718.84
2231.39	815.09
2232.79	747.51
2234.18	735.22
2235.58	784.37
2236.98	731.12
2238.38	724.98
2239.78	745.46
2241.17	874.48
2242.57	819.19
2243.97	786.42
2245.36	804.85
2246.76	770.04
2248.15	708.60
2249.55	655.35
2250.94	915.44
2252.33	796.66
2253.73	925.68
2255.12	794.61
2256.51	776.18
2257.90	751.60
2259.29	735.22
2260.68	632.82
2262.07	763.89
2263.46	796.66
2264.85	641.01
2266.24	802.80
2267.63	880.63
2269.02	778.23
2270.40	694.26
2271.79	763.89
2273.18	700.41
2274.56	622.58
2275.95	608.25
2277.33	917.49
2278.72	804.85
2280.10	845.81
2281.49	765.94
2282.87	739.32
2284.25	733.17
2285.63	757.75
2287.02	909.30
2288.40	593.91
2289.78	751.60
2291.16	604.15
2292.54	847.86
2293.92	841.72
2295.30	722.93
2296.68	608.25
2298.05	901.11
2299.43	815.09
2300.81	704.50
2302.19	686.07
2303.56	729.08
2304.94	837.62
2306.31	731.12
2307.69	759.80
2309.06	755.70
2310.44	774.13
2311.81	802.80
2313.19	720.88
2314.56	733.17
2315.93	770.04
2317.30	802.80
2318.67	724.98
2320.04	665.59
2321.41	647.16
2322.78	745.46
2324.15	714.74
2325.52	626.68
2326.89	804.85
2328.26	698.36
2329.63	663.54
2331.00	733.17
2332.36	669.69
2333.73	817.14
2335.09	702.45
2336.46	753.65
2337.83	716.79
2339.19	509.94
2340.55	522.23
2341.92	772.08
2343.28	714.74
2344.64	772.08
2346.01	729.08
2347.37	714.74
2348.73	647.16
2350.09	718.84
2351.45	677.88
2352.81	690.17
2354.17	907.25
2355.53	645.11
2356.89	702.45
2358.25	753.65
2359.61	671.73
2360.96	790.52
2362.32	604.15
2363.68	579.58
2365.03	731.12
2366.39	714.74
2367.74	702.45
2369.10	710.65
2370.45	694.26
2371.81	757.75
2373.16	743.41
2374.51	780.28
2375.86	684.02
2377.22	714.74
2378.57	720.88
2379.92	727.03
2381.27	684.02
2382.62	663.54
2383.97	620.53
2385.32	731.12
2386.67	653.30
2388.02	643.06
2389.37	645.11
2390.71	833.52
2392.06	692.21
2393.41	712.69
2394.75	782.32
2396.10	987.12
2397.44	595.96
2398.79	739.32
2400.13	704.50
2401.48	692.21
2402.82	718.84
2404.17	626.68
2405.51	698.36
2406.85	657.40
2408.19	770.04
2409.53	729.08
2410.87	733.17
2412.22	770.04
2413.56	714.74
2414.89	598.01
2416.23	702.45
2417.57	647.16
2418.91	591.86
2420.25	509.94
2421.59	649.21
2422.92	729.08
2424.26	462.84
2425.60	485.37
2426.93	641.01
2428.27	638.97
2429.60	808.95
2430.94	624.63
2432.27	718.84
2433.60	714.74
2434.94	524.28
2436.27	702.45
2437.60	546.81
2438.93	552.95
2440.27	661.49
2441.60	628.73
2442.93	450.55
2444.26	634.87
2445.59	610.29
2446.92	722.93
2448.24	614.39
2449.57	661.49
2450.90	524.28
2452.23	759.80
2453.55	583.67
2454.88	690.17
2456.21	581.62
2457.53	622.58
2458.86	548.86
2460.18	696.31
2461.51	565.24
2462.83	571.38
2464.15	503.80
2465.48	538.62
2466.80	536.57
2468.12	571.38
2469.44	665.59
2470.76	585.72
2472.09	481.27
2473.41	737.27
2474.73	626.68
2476.05	511.99
2477.36	593.91
2478.68	634.87
2480.00	501.75
2481.32	614.39
2482.64	606.20
2483.95	548.86
2485.27	661.49
2486.59	436.22
2487.90	526.33
2489.22	612.34
2490.53	552.95
2491.85	616.44
2493.16	540.66
2494.47	518.14
2495.79	571.38
2497.10	618.49
2498.41	446.46
2499.72	624.63
2501.03	634.87
2502.35	593.91
2503.66	546.81
2504.97	632.82
2506.28	462.84
2507.59	540.66
2508.89	671.73
2510.20	600.05
2511.51	534.52
2512.82	540.66
2514.12	430.07
2515.43	354.30
2516.74	487.42
2518.04	561.14
2519.35	616.44
2520.65	399.35
2521.96	598.01
2523.26	552.95
2524.57	464.89
2525.87	468.98
2527.17	671.73
2528.47	626.68
2529.78	485.37
2531.08	671.73
2532.38	544.76
2533.68	604.15
2534.98	499.70
2536.28	626.68
2537.58	505.85
2538.88	477.18
2540.18	385.02
2541.47	587.77
2542.77	665.59
2544.07	751.60
2545.37	759.80
2546.66	507.90
2547.96	587.77
2549.25	636.92
2550.55	634.87
2551.84	479.22
2553.14	471.03
2554.43	757.75
2555.72	583.67
2557.02	489.46
2558.31	428.03
2559.60	591.86
2560.89	587.77
2562.18	456.70
2563.48	663.54
2564.77	579.58
2566.06	602.10
2567.35	483.32
2568.63	636.92
2569.92	495.61
2571.21	555.00
2572.50	559.10
2573.79	575.48
2575.07	524.28
2576.36	528.38
2577.65	626.68
2578.93	612.34
2580.22	546.81
2581.50	524.28
2582.79	387.07
2584.07	610.29
2585.36	485.37
2586.64	604.15
2587.92	563.19
2589.20	591.86
2590.49	600.05
2591.77	493.56
2593.05	581.62
2594.33	471.03
2595.61	720.88
2596.89	479.22
2598.17	555.00
2599.45	694.26
2600.73	423.93
2602.00	487.42
2603.28	632.82
2604.56	403.45
2605.84	614.39
2607.11	561.14
2608.39	671.73
2609.67	655.35
2610.94	559.10
2612.22	540.66
2613.49	483.32
2614.76	579.58
2616.04	438.27
2617.31	569.34
2618.58	411.64
2619.86	634.87
2621.13	425.98
2622.40	598.01
2623.67	452.60
2624.94	784.37
2626.21	466.94
2627.48	528.38
2628.75	612.34
2630.02	444.41
2631.29	571.38
2632.56	503.80
2633.82	577.53
2635.09	493.56
2636.36	448.51
2637.63	636.92
2638.89	552.95
2640.16	550.90
2641.42	731.12
2642.69	610.29
2643.95	673.78
2645.22	487.42
2646.48	569.34
2647.74	546.81
2649.01	526.33
2650.27	464.89
2651.53	477.18
2652.79	507.90
2654.05	522.23
2655.31	456.70
2656.57	669.69
2657.83	544.76
2659.09	489.46
2660.35	534.52
2661.61	589.82
2662.87	522.23
2664.13	509.94
2665.38	511.99
2666.64	581.62
2667.90	626.68
2669.15	528.38
2670.41	591.86
2671.67	536.57
2672.92	606.20
2674.17	557.05
2675.43	563.19
2676.68	550.90
2677.94	397.31
2679.19	634.87
2680.44	589.81
2681.69	507.90
2682.95	485.37
2684.20	501.75
2685.45	628.73
2686.70	575.48
2687.95	493.56
2689.20	555.00
2690.45	636.92
2691.70	624.63
2692.94	577.53
2694.19	665.59
2695.44	569.34
2696.69	473.08
2697.93	378.87
2699.18	536.57
2700.43	559.10
2701.67	587.77
2702.92	575.48
2704.16	585.72
2705.41	593.91
2706.65	581.62
2707.89	448.51
2709.14	489.46
2710.38	688.12
2711.62	567.29
2712.86	395.26
2714.11	460.79
2715.35	557.05
2716.59	530.42
2717.83	505.85
2719.07	565.24
2720.31	534.52
2721.55	673.78
2722.78	550.90
2724.02	532.47
2725.26	391.16
2726.50	577.53
2727.73	694.26
2728.97	647.16
2730.21	487.42
2731.44	428.03
2732.68	698.36
2733.91	608.25
2735.15	473.08
2736.38	511.99
2737.62	528.38
2738.85	577.53
2740.08	667.64
2741.32	641.01
2742.55	462.84
2743.78	559.10
2745.01	573.43
2746.24	741.36
2747.47	538.62
2748.70	731.12
2749.93	589.82
2751.16	528.38
2752.39	487.42
2753.62	626.68
2754.85	417.79
2756.08	509.94
2757.30	630.77
2758.53	544.76
2759.76	471.03
2760.98	624.63
2762.21	475.13
2763.43	686.07
2764.66	602.10
2765.88	503.80
2767.11	569.34
2768.33	598.01
2769.55	575.48
2770.78	612.34
2772.00	481.27
2773.22	608.25
2774.44	524.28
2775.67	505.85
2776.89	542.71
2778.11	567.29
2779.33	321.53
2780.55	573.43
2781.77	479.22
2782.99	591.86
2784.20	653.30
2785.42	643.06
2786.64	403.45
2787.86	542.71
2789.07	587.77
2790.29	495.61
2791.51	479.22
2792.72	495.61
2793.94	681.97
2795.15	688.12
2796.37	598.01
2797.58	581.62
2798.80	638.97
2800.01	546.81
2801.22	577.53
2802.44	591.86
2803.65	483.32
2804.86	571.38
2806.07	673.78
2807.28	503.80
2808.49	503.80
2809.70	557.05
2810.91	622.58
2812.12	684.02
2813.33	733.17
2814.54	522.23
2815.75	501.75
2816.96	636.92
2818.16	604.15
2819.37	552.95
2820.58	524.28
2821.78	712.69
2822.99	452.60
2824.20	448.51
2825.40	552.95
2826.61	538.62
2827.81	442.36
2829.01	413.69
2830.22	669.69
2831.42	565.24
2832.62	432.12
2833.83	645.11
2835.03	475.13
2836.23	509.94
2837.43	536.57
2838.63	622.58
2839.83	583.67
2841.03	628.73
2842.23	497.66
2843.43	452.60
2844.63	497.66
2845.83	598.01
2847.03	415.74
2848.22	610.29
2849.42	520.18
2850.62	436.22
2851.81	485.37
2853.01	454.65
2854.21	413.69
2855.40	569.34
2856.60	540.66
2857.79	460.79
2858.99	397.31
2860.18	425.98
2861.37	559.10
2862.57	628.73
2863.76	690.17
2864.95	524.28
2866.14	661.49
2867.33	344.06
2868.52	421.88
2869.72	454.65
2870.91	413.69
2872.10	686.07
2873.28	387.07
2874.47	557.05
2875.66	686.07
2876.85	645.11
2878.04	522.23
2879.23	608.25
2880.41	489.46
2881.60	671.73
2882.79	608.25
2883.97	534.52
2885.16	591.86
2886.34	614.39
2887.53	524.28
2888.71	688.12
2889.90	561.14
2891.08	552.95
2892.26	720.88
2893.45	536.57
2894.63	557.05
2895.81	477.18
2896.99	544.76
2898.17	655.35
2899.36	464.89
2900.54	565.24
2901.72	589.82
2902.90	393.21
2904.08	563.19
2905.26	499.70
2906.43	491.51
2907.61	636.92
2908.79	407.55
2909.97	526.33
2911.14	663.54
2912.32	624.63
2913.50	577.53
2914.67	413.69
2915.85	638.97
2917.02	434.17
2918.20	473.08
2919.37	667.64
2920.55	454.65
2921.72	526.33
2922.90	583.67
2924.07	550.90
2925.24	661.49
2926.41	511.99
2927.58	767.99
2928.76	598.01
2929.93	573.43
2931.10	552.95
2932.27	626.68
2933.44	587.77
2934.61	587.77
2935.78	591.86
2936.95	344.06
2938.11	671.73
2939.28	477.18
2940.45	489.46
2941.62	495.61
2942.78	509.94
2943.95	538.62
2945.12	563.19
2946.28	522.23
2947.45	374.78
2948.61	583.67
2949.78	434.17
2950.94	649.21
2952.10	473.08
2953.27	659.45
2954.43	604.15
2955.59	694.26
2956.76	569.34
2957.92	526.33
2959.08	595.96
2960.24	489.46
2961.40	567.29
2962.56	624.63
2963.72	647.16
2964.88	565.24
2966.04	675.83
2967.20	440.31
2968.36	561.14
2969.52	835.57
2970.67	659.45
2971.83	571.38
2972.99	608.25
2974.14	686.07
2975.30	638.97
2976.46	544.76
2977.61	684.02
2978.77	505.85
2979.92	696.31
2981.08	622.58
2982.23	622.58
2983.38	595.96
2984.54	669.69
2985.69	655.35
2986.84	815.09
2987.99	714.74
2989.15	702.45
2990.30	634.87
2991.45	649.21
2992.60	720.88
2993.75	593.91
2994.90	704.50
2996.05	704.50
2997.20	741.36
2998.35	600.05
2999.49	702.45
3000.64	901.11
3001.79	698.36
3002.94	1015.79
3004.08	886.77
3005.23	950.26
3006.38	935.92
3007.52	1048.56
3008.67	1134.57
3009.81	1146.86
3010.96	1298.41
3012.10	1316.84
3013.25	1255.40
3014.39	1550.31
3015.53	1503.21
3016.67	1728.49
3017.82	1796.07
3018.96	1837.03
3020.10	1806.31
3021.24	1847.27
3022.38	1841.12
3023.52	1791.97
3024.66	1617.90
3025.80	1753.06
3026.94	1585.13
3028.08	1482.73
3029.22	1431.53
3030.36	1290.22
3031.50	1488.87
3032.63	1284.08
3033.77	1230.83
3034.91	1384.43
3036.04	1175.53
3037.18	1210.35
3038.32	1091.57
3039.45	804.85
3040.59	878.58
3041.72	968.69
3042.86	811.00
3043.99	774.13
3045.12	708.60
3046.26	862.19
3047.39	757.75
3048.52	727.03
3049.65	856.05
3050.78	604.15
3051.92	686.07
3053.05	665.59
3054.18	653.30
3055.31	702.45
3056.44	710.65
3057.57	649.21
3058.70	751.60
3059.82	655.35
3060.95	544.76
3062.08	589.82
3063.21	780.28
3064.34	561.14
3065.46	575.48
3066.59	649.21
3067.71	800.76
3068.84	681.97
3069.97	595.96
3071.09	641.01
3072.22	622.58
3073.34	473.08
3074.46	712.69
3075.59	655.35
3076.71	647.16
3077.83	684.02
3078.96	630.77
3080.08	587.77
3081.20	628.73
3082.32	526.33
3083.44	647.16
3084.56	649.21
3085.68	544.76
3086.80	690.17
3087.92	493.56
3089.04	622.58
3090.16	575.48
3091.28	622.58
3092.40	505.85
3093.51	604.15
3094.63	518.14
3095.75	565.24
3096.87	710.65
3097.98	544.76
3099.10	493.56
3100.21	532.47
3101.33	548.86
3102.44	522.23
3103.56	473.08
3104.67	479.22
3105.79	462.84
3106.90	583.67
3108.01	505.85
3109.12	475.13
3110.24	561.14
3111.35	491.51
3112.46	419.83
3113.57	565.24
3114.68	423.93
3115.79	528.38
3116.90	526.33
3118.01	622.58
3119.12	434.17
3120.23	399.35
3121.34	532.47
3122.45	589.82
3123.56	380.92
3124.66	354.30
3125.77	511.99
3126.88	503.80
3127.98	401.40
3129.09	454.65
3130.20	651.25
3131.30	495.61
3132.41	630.77
3133.51	421.88
3134.61	411.64
3135.72	466.94
3136.82	581.62
3137.93	516.09
3139.03	448.51
3140.13	518.14
3141.23	538.62
3142.33	477.18
3143.44	454.65
3144.54	501.75
3145.64	452.60
3146.74	546.81
3147.84	516.09
3148.94	462.84
3150.04	483.32
3151.14	436.22
3152.23	526.33
3153.33	294.91
3154.43	372.73
3155.53	501.75
3156.63	522.23
3157.72	552.95
3158.82	323.58
3159.91	489.46
3161.01	530.42
3162.11	493.56
3163.20	362.49
3164.30	454.65
3165.39	548.86
3166.48	425.98
3167.58	464.89
3168.67	477.18
3169.76	368.63
3170.86	454.65
3171.95	520.18
3173.04	569.34
3174.13	425.98
3175.22	346.11
3176.31	487.42
3177.40	438.27
3178.49	403.45
3179.58	372.73
3180.67	589.81
3181.76	401.40
3182.85	419.83
3183.94	323.58
3185.03	628.73
3186.11	618.49
3187.20	530.42
3188.29	444.41
3189.37	567.29
3190.46	464.89
3191.55	409.59
3192.63	542.71
3193.72	499.70
3194.80	468.98
3195.89	493.56
3196.97	335.87
3198.05	452.60
3199.14	489.46
3200.22	399.35
3201.30	448.51
3202.38	468.98
3203.47	473.08
3204.55	399.35
3205.63	104.45
3206.71	641.01
3207.79	432.12
3208.87	475.13
3209.95	499.70
3211.03	411.64
3212.11	456.70
3213.19	634.87
3214.27	438.27
3215.34	528.38
3216.42	460.79
3217.50	423.93
3218.58	477.18
3219.65	475.13
3220.73	309.24
3221.80	348.15
3222.88	511.99
3223.96	573.43
3225.03	378.87
3226.10	589.82
3227.18	444.41
3228.25	520.18
3229.33	563.19
3230.40	350.20
3231.47	423.93
3232.54	438.27
3233.62	567.29
3234.69	567.29
3235.76	628.73
3236.83	475.13
3237.90	565.24
3238.97	552.95
3240.04	362.49
3241.11	432.12
3242.18	423.93
3243.25	540.66
3244.32	466.94
3245.39	501.75
3246.45	409.59
3247.52	366.59
3248.59	454.65
3249.66	485.37
3250.72	577.53
3251.79	532.47
3252.85	360.44
3253.92	436.22
3254.98	372.73
3256.05	425.98
3257.11	489.46
3258.18	430.07
3259.24	514.04
3260.30	382.97
3261.37	526.33
3262.43	587.77
3263.49	337.91
3264.55	358.39
3265.62	522.23
3266.68	440.31
3267.74	507.90
3268.80	417.79
3269.86	309.24
3270.92	344.06
3271.98	376.83
3273.04	462.84
3274.10	540.66
3275.16	385.02
3276.21	440.31
3277.27	272.38
3278.33	399.35
3279.39	438.27
3280.44	466.94
3281.50	520.18
3282.56	387.07
3283.61	585.72
3284.67	507.90
3285.72	430.07
3286.78	356.35
3287.83	550.90
3288.88	327.68
3289.94	407.55
3290.99	628.73
3292.04	456.70
3293.10	423.93
3294.15	511.99
3295.20	425.98
3296.25	425.98
3297.30	413.69
3298.36	337.91
3299.41	536.57
3300.46	282.62
3301.51	514.04
3302.56	389.11
3303.61	460.79
3304.65	342.01
3305.70	503.80
3306.75	550.90
3307.80	497.66
3308.85	401.40
3309.89	385.02
3310.94	565.24
3311.99	391.16
3313.03	485.37
3314.08	456.70
3315.12	434.17
3316.17	520.18
3317.21	387.07
3318.26	452.60
3319.30	364.54
3320.35	518.14
3321.39	305.15
3322.43	356.35
3323.48	299.00
3324.52	550.90
3325.56	385.02
3326.60	339.96
3327.64	432.12
3328.68	536.57
3329.73	362.49
3330.77	274.43
3331.81	333.82
3332.85	548.86
3333.88	397.31
3334.92	434.17
3335.96	423.93
3337.00	362.49
3338.04	346.11
3339.08	364.54
3340.11	497.66
3341.15	428.03
3342.19	446.46
3343.22	409.59
3344.26	335.87
3345.30	454.65
3346.33	434.17
3347.37	530.42
3348.40	479.22
3349.43	462.84
3350.47	382.97
3351.50	538.62
3352.54	397.31
3353.57	473.08
3354.60	466.94
3355.63	405.50
3356.67	325.63
3357.70	372.73
3358.73	413.69
3359.76	368.63
3360.79	518.14
3361.82	493.56
3362.85	505.85
3363.88	464.89
3364.91	489.46
3365.94	546.81
3366.97	339.96
3367.99	450.55
3369.02	468.98
3370.05	452.60
3371.08	323.58
3372.10	380.92
3373.13	270.33
3374.16	364.54
3375.18	399.35
3376.21	385.02
3377.23	339.96
3378.26	534.52
3379.28	380.92
3380.31	356.35
3381.33	483.32
3382.35	337.91
3383.38	407.55
3384.40	471.03
3385.42	458.75
3386.45	403.45
3387.47	524.28
3388.49	526.33
3389.51	356.35
3390.53	423.93
3391.55	346.11
3392.57	448.51
3393.59	483.32
3394.61	434.17
3395.63	511.99
3396.65	610.29
3397.67	368.63
3398.69	360.44
3399.70	430.07
3400.72	495.61
3401.74	282.62
3402.76	380.92
3403.77	172.03
3404.79	430.07
3405.80	284.67
3406.82	501.75
3407.83	413.69
3408.85	417.79
3409.86	507.90
3410.88	481.27
3411.89	399.35
3412.91	350.20
3413.92	456.70
3414.93	301.05
3415.94	405.50
3416.96	462.84
3417.97	548.86
3418.98	520.18
3419.99	405.50
3421.00	376.83
3422.01	376.83
3423.02	329.72
3424.03	409.59
3425.04	325.63
3426.05	428.03
3427.06	468.98
3428.07	184.32
3429.08	315.39
3430.09	251.90
3431.09	432.12
3432.10	507.90
3433.11	483.32
3434.12	395.26
3435.12	368.63
3436.13	485.37
3437.13	448.51
3438.14	475.13
3439.14	413.69
3440.15	364.54
3441.15	409.59
3442.16	612.34
3443.16	331.77
3444.16	321.53
3445.17	409.59
3446.17	403.45
3447.17	387.07
3448.17	389.11
3449.18	417.79
3450.18	382.97
3451.18	446.46
3452.18	270.33
3453.18	460.79
3454.18	229.37
3455.18	221.18
3456.18	436.22
3457.18	370.68
3458.18	305.15
3459.17	270.33
3460.17	323.58
3461.17	425.98
3462.17	454.65
3463.17	577.53
3464.16	344.06
3465.16	452.60
3466.15	489.46
3467.15	415.74
3468.15	430.07
3469.14	294.91
3470.14	389.11
3471.13	540.66
3472.13	444.41
3473.12	266.24
3474.11	325.63
3475.11	397.31
3476.10	387.07
3477.09	372.73
3478.08	282.62
3479.08	440.31
3480.07	315.39
3481.06	450.55
3482.05	231.42
3483.04	438.27
3484.03	450.55
3485.02	450.55
3486.01	366.59
3487.00	462.84
3487.99	524.28
3488.98	321.53
3489.97	460.79
3490.95	325.63
3491.94	481.27
3492.93	354.30
3493.92	421.88
3494.90	399.35
3495.89	313.34
3496.88	315.39
3497.86	385.02
3498.85	235.52
3499.83	342.01
3500.82	337.91
3501.80	251.90
3502.79	376.83
3503.77	366.59
3504.75	399.35
3505.74	270.33
3506.72	387.07
3507.70	661.49
3508.68	389.11
3509.67	344.06
3510.65	499.70
3511.63	364.54
3512.61	405.50
3513.59	325.63
3514.57	516.09
3515.55	393.21
3516.53	362.49
3517.51	323.58
3518.49	376.83
3519.47	348.15
3520.45	329.72
3521.42	450.55
3522.40	399.35
3523.38	378.87
3524.36	282.62
3525.33	215.04
3526.31	475.13
3527.29	212.99
3528.26	430.07
3529.24	339.96
3530.21	393.21
3531.19	299.00
3532.16	305.15
3533.14	315.39
3534.11	266.24
3535.08	413.69
3536.06	380.92
3537.03	317.44
3538.00	417.79
3538.98	403.45
3539.95	385.02
3540.92	258.04
3541.89	403.45
3542.86	292.86
3543.83	174.08
3544.80	251.90
3545.77	268.28
3546.74	217.08
3547.71	335.87
3548.68	202.75
3549.65	516.09
3550.62	360.44
3551.59	550.90
3552.56	428.03
3553.52	307.20
3554.49	245.76
3555.46	313.34
3556.42	348.15
3557.39	319.48
3558.36	415.74
3559.32	430.07
3560.29	430.07
3561.25	223.23
3562.22	276.48
3563.18	264.19
3564.15	301.05
3565.11	342.01
3566.07	407.55
3567.04	446.46
3568.00	520.18
3568.96	358.39
3569.92	342.01
3570.89	264.19
3571.85	305.15
3572.81	192.51
3573.77	337.91
3574.73	393.21
3575.69	278.52
3576.65	346.11
3577.61	253.95
3578.57	106.49
3579.53	217.08
3580.49	311.29
3581.45	305.15
3582.40	321.53
3583.36	305.15
3584.32	358.39
3585.28	229.37
3586.23	423.93
3587.19	428.03
3588.15	296.96
3589.10	262.14
3590.06	280.57
3591.01	354.30
3591.97	286.72
3592.92	262.14
3593.88	237.56
3594.83	305.15
3595.78	387.07
3596.74	221.18
3597.69	227.32
3598.64	296.96
3599.60	532.47
3600.55	237.56
3601.50	350.20
3602.45	315.39
3603.40	344.06
3604.35	262.14
3605.31	337.91
3606.26	260.09
3607.21	409.59
3608.16	397.31
3609.10	301.05
3610.05	206.84
3611.00	307.20
3611.95	301.05
3612.90	258.04
3613.85	280.57
3614.79	385.02
3615.74	305.15
3616.69	262.14
3617.63	51.20
3618.58	315.39
3619.53	274.43
3620.47	286.72
3621.42	339.96
3622.36	219.13
3623.31	231.42
3624.25	346.11
3625.20	225.28
3626.14	233.47
3627.08	194.56
3628.03	382.97
3628.97	374.78
3629.91	444.41
3630.85	415.74
3631.80	333.82
3632.74	430.07
3633.68	282.62
3634.62	268.28
3635.56	196.61
3636.50	284.67
3637.44	176.13
3638.38	110.59
3639.32	278.52
3640.26	194.56
3641.20	315.39
3642.14	391.16
3643.08	221.18
3644.01	194.56
3644.95	202.75
3645.89	296.96
3646.83	135.17
3647.76	182.27
3648.70	253.95
3649.63	286.72
3650.57	323.58
3651.51	532.47
3652.44	198.65
3653.38	221.18
3654.31	233.47
3655.24	342.01
3656.18	270.33
3657.11	292.86
3658.05	219.13
3658.98	266.24
3659.91	260.09
3660.84	368.63
3661.78	323.58
3662.71	409.59
3663.64	194.56
3664.57	389.11
3665.50	286.72
3666.43	411.64
3667.36	333.82
3668.29	110.59
3669.22	337.91
3670.15	258.04
3671.08	256.00
3672.01	178.17
3672.94	321.53
3673.86	235.52
3674.79	284.67
3675.72	335.87
3676.65	395.26
3677.57	393.21
3678.50	294.91
3679.43	307.20
3680.35	284.67
3681.28	245.76
3682.20	122.88
3683.13	468.98
3684.05	239.61
3684.98	186.37
3685.90	237.56
3686.83	194.56
3687.75	280.57
3688.67	333.82
3689.60	315.39
3690.52	217.08
3691.44	260.09
3692.36	186.37
3693.28	200.70
3694.21	98.30
3695.13	364.54
3696.05	378.87
3696.97	241.66
3697.89	239.61
3698.81	337.91
3699.73	358.39
3700.65	122.88
3701.57	350.20
3702.48	141.31
3703.40	299.00
3704.32	299.00
3705.24	280.57
3706.16	282.62
3707.07	448.51
3707.99	198.65
3708.91	272.38
3709.82	333.82
3710.74	270.33
3711.66	161.79
3712.57	337.91
3713.49	282.62
3714.40	221.18
3715.31	231.42
3716.23	231.42
3717.14	303.10
3718.06	274.43
3718.97	352.25
3719.88	286.72
3720.80	198.65
3721.71	-6049.70
3722.62	385.02
3723.53	256.00
3724.44	333.82
3725.35	219.13
3726.26	188.41
3727.18	159.74
3728.09	247.80
3729.00	235.52
3729.91	176.13
3730.81	215.04
3731.72	186.37
3732.63	165.89
3733.54	227.32
3734.45	296.96
3735.36	221.18
3736.26	122.88
3737.17	182.27
3738.08	434.17
3738.99	247.80
3739.89	274.43
3740.80	325.63
3741.70	219.13
3742.61	249.85
3743.51	182.27
3744.42	227.32
3745.32	393.21
3746.23	366.59
3747.13	299.00
3748.04	350.20
3748.94	258.04
3749.84	237.56
3750.74	114.69
3751.65	190.46
3752.55	274.43
3753.45	274.43
3754.35	270.33
3755.25	194.56
3756.16	221.18
3757.06	149.50
3757.96	356.35
3758.86	192.51
3759.76	182.27
3760.66	391.16
3761.55	98.30
3762.45	198.65
3763.35	116.73
3764.25	167.93
3765.15	227.32
3766.05	239.61
3766.94	204.80
3767.84	221.18
3768.74	129.02
3769.63	206.84
3770.53	98.30
3771.43	233.47
3772.32	34.82
3773.22	321.53
3774.11	292.86
3775.01	77.82
3775.90	241.66
3776.80	327.68
3777.69	186.37
3778.58	327.68
3779.48	172.03
3780.37	169.98
3781.26	335.87
3782.16	315.39
3783.05	323.58
3783.94	182.27
3784.83	301.05
3785.72	153.60
3786.61	423.93
3787.50	210.94
3788.39	288.76
3789.28	243.71
3790.17	225.28
3791.06	192.51
3791.95	290.81
3792.84	143.36
3793.73	149.50
3794.62	208.89
3795.51	137.21
3796.39	397.31
3797.28	4.10
3798.17	69.63
3799.06	172.03
3799.94	364.54
3800.83	172.03
3801.71	139.26
3802.60	129.02
3803.48	237.56
3804.37	309.24
3805.25	262.14
3806.14	176.13
3807.02	270.33
3807.91	176.13
3808.79	184.32
3809.67	264.19
3810.56	260.09
3811.44	354.30
3812.32	327.68
3813.20	339.96
3814.09	204.80
3814.97	204.80
3815.85	299.00
3816.73	116.73
3817.61	301.05
3818.49	309.24
3819.37	270.33
3820.25	280.57
3821.13	217.08
3822.01	131.07
3822.89	143.36
3823.77	202.75
3824.65	237.56
3825.52	145.41
3826.40	249.85
3827.28	253.95
3828.16	174.08
3829.03	227.32
3829.91	391.16
3830.79	73.73
3831.66	387.07
3832.54	81.92
3833.41	296.96
3834.29	159.74
3835.16	106.49
3836.04	161.79
3836.91	172.03
3837.79	272.38
3838.66	120.83
3839.53	276.48
3840.41	165.89
3841.28	331.77
3842.15	92.16
3843.02	253.95
3843.90	174.08
3844.77	178.17
3845.64	264.19
3846.51	212.99
3847.38	311.29
3848.25	106.49
3849.12	311.29
3849.99	325.63
3850.86	274.43
3851.73	221.18
3852.60	301.05
3853.47	247.80
3854.34	274.43
3855.21	100.35
3856.07	235.52
3856.94	118.78
3857.81	350.20
3858.68	204.80
3859.54	30.72
3860.41	135.17
3861.28	260.09
3862.14	208.89
3863.01	364.54
3863.87	262.14
3864.74	149.50
3865.60	71.68
3866.47	88.06
3867.33	268.28
3868.19	215.04
3869.06	102.40
3869.92	223.23
3870.78	270.33
3871.65	325.63
3872.51	268.28
3873.37	192.51
3874.23	258.04
3875.10	145.41
3875.96	219.13
3876.82	200.70
3877.68	210.94
3878.54	169.98
3879.40	186.37
3880.26	151.55
3881.12	81.92
3881.98	188.41
3882.84	161.79
3883.70	251.90
3884.55	55.30
3885.41	157.69
3886.27	217.08
3887.13	247.80
3887.99	233.47
3888.84	237.56
3889.70	233.47
3890.56	217.08
3891.41	270.33
3892.27	317.44
3893.12	129.02
3893.98	180.22
3894.83	188.41
3895.69	307.20
3896.54	253.95
3897.40	239.61
3898.25	149.50
3899.11	65.53
3899.96	247.80
3900.81	172.03
3901.66	198.65
3902.52	303.10
3903.37	159.74
3904.22	219.13
3905.07	278.52
3905.92	75.77
3906.78	243.71
3907.63	71.68
