raman   n
-2184.52	-71.68
-2181.51	-71.68
-2178.50	-71.68
-2175.49	-20.48
-2172.49	-4.10
-2169.48	112.64
-2166.48	-233.47
-2163.48	-217.08
-2160.47	53.25
-2157.47	51.20
-2154.47	30.72
-2151.48	-26.62
-2148.48	215.04
-2145.49	28.67
-2142.49	-61.44
-2139.50	104.45
-2136.51	49.15
-2133.52	71.68
-2130.53	208.89
-2127.54	624.63
-2124.55	565.24
-2121.57	849.91
-2118.58	663.54
-2115.60	620.53
-2112.62	827.38
-2109.64	813.04
-2106.66	950.26
-2103.68	456.70
-2100.70	743.41
-2097.73	538.62
-2094.75	655.35
-2091.78	743.41
-2088.81	655.35
-2085.83	624.63
-2082.86	-477.18
-2079.90	516.09
-2076.93	749.56
-2073.96	626.68
-2071.00	536.57
-2068.03	802.80
-2065.07	647.16
-2062.11	608.25
-2059.15	536.57
-2056.19	757.75
-2053.23	925.68
-2050.27	696.31
-2047.32	790.52
-2044.36	987.12
-2041.41	526.33
-2038.46	563.19
-2035.51	636.92
-2032.56	1013.74
-2029.61	694.26
-2026.66	724.98
-2023.72	716.79
-2020.77	933.87
-2017.83	1052.66
-2014.88	737.27
-2011.94	659.45
-2009.00	524.28
-2006.06	829.43
-2003.13	839.67
-2000.19	454.65
-1997.25	440.31
-1994.32	675.83
-1991.39	634.87
-1988.45	808.95
-1985.52	788.47
-1982.59	901.11
-1979.67	665.59
-1976.74	917.49
-1973.81	974.83
-1970.89	686.07
-1967.96	708.60
-1965.04	569.34
-1962.12	794.61
-1959.20	698.36
-1956.28	649.21
-1953.36	714.74
-1950.45	657.40
-1947.53	632.82
-1944.62	708.60
-1941.70	581.62
-1938.79	641.01
-1935.88	708.60
-1932.97	722.93
-1930.06	854.00
-1927.15	567.29
-1924.25	624.63
-1921.34	352.25
-1918.44	559.10
-1915.54	995.31
-1912.63	628.73
-1909.73	716.79
-1906.83	860.15
-1903.94	542.71
-1901.04	258.04
-1898.14	675.83
-1895.25	647.16
-1892.36	886.77
-1889.46	497.66
-1886.57	610.29
-1883.68	659.45
-1880.79	794.61
-1877.91	876.53
-1875.02	739.32
-1872.13	892.91
-1869.25	487.42
-1866.37	827.38
-1863.48	667.64
-1860.60	993.26
-1857.72	509.94
-1854.84	430.07
-1851.97	509.94
-1849.09	808.95
-1846.22	581.62
-1843.34	616.44
-1840.47	620.53
-1837.60	395.26
-1834.73	409.59
-1831.86	788.47
-1828.99	722.93
-1826.12	663.54
-1823.26	925.68
-1820.39	372.73
-1817.53	475.13
-1814.67	460.79
-1811.80	630.77
-1808.94	450.55
-1806.08	557.05
-1803.23	555.00
-1800.37	610.29
-1797.51	784.37
-1794.66	749.56
-1791.81	382.97
-1788.95	630.77
-1786.10	696.31
-1783.25	704.50
-1780.40	471.03
-1777.56	278.52
-1774.71	401.40
-1771.86	479.22
-1769.02	323.58
-1766.18	450.55
-1763.33	366.59
-1760.49	479.22
-1757.65	516.09
-1754.81	258.04
-1751.98	600.05
-1749.14	575.48
-1746.30	509.94
-1743.47	688.12
-1740.64	569.34
-1737.81	524.28
-1734.97	634.87
-1732.14	706.55
-1729.32	571.38
-1726.49	712.69
-1723.66	577.53
-1720.84	755.70
-1718.01	626.68
-1715.19	616.44
-1712.37	630.77
-1709.55	339.96
-1706.73	616.44
-1703.91	501.75
-1701.09	499.70
-1698.27	667.64
-1695.46	745.46
-1692.65	344.06
-1689.83	624.63
-1687.02	163.84
-1684.21	499.70
-1681.40	516.09
-1678.59	477.18
-1675.78	317.44
-1672.98	458.74
-1670.17	763.89
-1667.37	698.36
-1664.56	464.89
-1661.76	770.04
-1658.96	624.63
-1656.16	585.72
-1653.36	972.79
-1650.57	528.38
-1647.77	278.52
-1644.97	481.27
-1642.18	755.70
-1639.39	628.73
-1636.60	843.76
-1633.80	268.28
-1631.01	563.19
-1628.23	479.22
-1625.44	614.39
-1622.65	1005.55
-1619.87	888.82
-1617.08	567.29
-1614.30	288.76
-1611.52	415.74
-1608.74	505.85
-1605.96	276.48
-1603.18	294.91
-1600.40	534.52
-1597.62	702.45
-1594.85	593.91
-1592.07	593.91
-1589.30	395.26
-1586.53	622.58
-1583.76	423.93
-1580.99	501.75
-1578.22	309.24
-1575.45	440.31
-1572.68	681.97
-1569.92	567.29
-1567.15	342.01
-1564.39	581.62
-1561.63	335.87
-1558.86	724.98
-1556.10	415.74
-1553.34	899.06
-1550.59	468.98
-1547.83	757.75
-1545.07	595.96
-1542.32	528.38
-1539.56	428.03
-1536.81	727.03
-1534.06	397.31
-1531.31	692.21
-1528.56	647.16
-1525.81	866.29
-1523.06	477.18
-1520.32	3882.95
-1517.57	417.79
-1514.83	460.79
-1512.09	673.78
-1509.34	440.31
-1506.60	501.75
-1503.86	436.22
-1501.12	466.94
-1498.39	438.27
-1495.65	733.17
-1492.91	546.81
-1490.18	690.17
-1487.45	544.76
-1484.71	454.65
-1481.98	618.49
-1479.25	491.51
-1476.52	583.67
-1473.80	468.98
-1471.07	370.68
-1468.34	505.85
-1465.62	657.40
-1462.89	612.34
-1460.17	1042.42
-1457.45	526.33
-1454.73	655.35
-1452.01	587.77
-1449.29	739.32
-1446.57	659.45
-1443.86	792.56
-1441.14	706.55
-1438.43	385.02
-1435.71	436.22
-1433.00	270.33
-1430.29	458.74
-1427.58	501.75
-1424.87	493.56
-1422.16	598.01
-1419.46	583.67
-1416.75	444.41
-1414.05	593.91
-1411.34	552.95
-1408.64	460.79
-1405.94	505.85
-1403.24	446.46
-1400.54	495.61
-1397.84	9758.57
-1395.14	311.29
-1392.45	860.15
-1389.75	534.52
-1387.06	704.50
-1384.36	507.90
-1381.67	606.20
-1378.98	565.24
-1376.29	694.26
-1373.60	589.81
-1370.91	710.65
-1368.23	528.38
-1365.54	684.02
-1362.86	579.58
-1360.17	931.83
-1357.49	577.53
-1354.81	749.56
-1352.13	305.15
-1349.45	827.38
-1346.77	487.42
-1344.09	692.21
-1341.42	696.31
-1338.74	198.65
-1336.07	548.86
-1333.39	155.65
-1330.72	673.78
-1328.05	296.96
-1325.38	550.90
-1322.71	495.61
-1320.04	323.58
-1317.37	573.43
-1314.71	600.05
-1312.04	348.15
-1309.38	495.61
-1306.72	909.30
-1304.05	761.84
-1301.39	452.60
-1298.73	245.76
-1296.08	376.83
-1293.42	524.28
-1290.76	411.64
-1288.10	532.47
-1285.45	438.27
-1282.80	559.10
-1280.14	716.79
-1277.49	704.50
-1274.84	520.18
-1272.19	481.27
-1269.54	407.55
-1266.90	391.16
-1264.25	473.08
-1261.60	342.01
-1258.96	532.47
-1256.32	706.55
-1253.67	372.73
-1251.03	489.46
-1248.39	684.02
-1245.75	632.82
-1243.11	638.97
-1240.48	520.18
-1237.84	780.28
-1235.20	534.52
-1232.57	352.25
-1229.94	745.46
-1227.31	337.91
-1224.67	423.93
-1222.04	505.85
-1219.41	417.79
-1216.79	620.53
-1214.16	567.29
-1211.53	481.27
-1208.91	282.62
-1206.28	292.86
-1203.66	618.49
-1201.04	806.90
-1198.42	552.95
-1195.80	485.37
-1193.18	331.77
-1190.56	360.44
-1187.94	585.72
-1185.33	120.83
-1182.71	335.87
-1180.10	-6.14
-1177.49	350.20
-1174.87	468.98
-1172.26	284.67
-1169.65	536.57
-1167.04	698.36
-1164.44	591.86
-1161.83	589.81
-1159.22	405.50
-1156.62	352.25
-1154.01	577.53
-1151.41	452.60
-1148.81	671.73
-1146.21	432.12
-1143.61	415.74
-1141.01	358.39
-1138.41	352.25
-1135.81	280.57
-1133.22	581.62
-1130.62	1984.48
-1128.03	471.03
-1125.44	534.52
-1122.84	561.14
-1120.25	661.49
-1117.66	458.75
-1115.07	622.58
-1112.49	323.58
-1109.90	532.47
-1107.31	610.29
-1104.73	520.18
-1102.14	567.29
-1099.56	428.03
-1096.98	405.50
-1094.40	368.63
-1091.82	417.79
-1089.24	462.84
-1086.66	393.21
-1084.08	247.80
-1081.51	776.18
-1078.93	696.31
-1076.36	436.22
-1073.79	374.78
-1071.21	663.54
-1068.64	430.07
-1066.07	372.73
-1063.50	565.24
-1060.93	466.94
-1058.37	595.96
-1055.80	765.94
-1053.24	243.71
-1050.67	657.40
-1048.11	571.38
-1045.55	495.61
-1042.99	374.78
-1040.42	337.91
-1037.87	696.31
-1035.31	352.25
-1032.75	448.51
-1030.19	731.12
-1027.64	655.35
-1025.08	387.07
-1022.53	208.89
-1019.98	425.98
-1017.43	217.08
-1014.88	223.23
-1012.33	169.98
-1009.78	376.83
-1007.23	274.43
-1004.68	417.79
-1002.14	679.93
-999.59	405.50
-997.05	720.89
-994.51	430.07
-991.96	401.40
-989.42	319.48
-986.88	344.06
-984.34	260.09
-981.81	591.86
-979.27	239.61
-976.73	354.30
-974.20	86.01
-971.66	538.62
-969.13	36.86
-966.60	514.04
-964.07	262.14
-961.54	-30.72
-959.01	475.13
-956.48	327.68
-953.95	645.11
-951.43	561.14
-948.90	569.34
-946.38	294.91
-943.85	382.97
-941.33	602.10
-938.81	399.35
-936.29	376.83
-933.77	468.98
-931.25	667.64
-928.73	507.90
-926.22	555.00
-923.70	460.79
-921.19	536.57
-918.67	235.52
-916.16	538.62
-913.65	208.89
-911.14	618.49
-908.63	612.34
-906.12	612.34
-903.61	540.66
-901.10	761.84
-898.59	509.94
-896.09	706.55
-893.59	749.56
-891.08	743.41
-888.58	985.07
-886.08	1064.94
-883.58	665.59
-881.08	688.12
-878.58	1107.95
-876.08	778.23
-873.58	1003.50
-871.09	741.36
-868.59	563.19
-866.10	540.66
-863.61	262.14
-861.12	516.09
-858.62	456.70
-856.13	477.18
-853.64	399.35
-851.16	618.49
-848.67	288.76
-846.18	471.03
-843.70	217.08
-841.21	288.76
-838.73	448.51
-836.25	446.46
-833.77	503.80
-831.28	364.54
-828.81	671.73
-826.33	358.39
-823.85	518.14
-821.37	600.05
-818.90	587.77
-816.42	352.25
-813.95	475.13
-811.47	612.34
-809.00	-628.73
-806.53	376.83
-804.06	653.30
-801.59	583.67
-799.12	481.27
-796.65	862.19
-794.19	391.16
-791.72	434.17
-789.26	532.47
-786.79	368.63
-784.33	462.84
-781.87	294.91
-779.41	309.24
-776.95	518.14
-774.49	606.20
-772.03	323.58
-769.57	602.10
-767.12	319.48
-764.66	464.89
-762.21	530.42
-759.75	606.20
-757.30	167.93
-754.85	511.99
-752.40	280.57
-749.95	249.85
-747.50	149.50
-745.05	870.39
-742.60	274.43
-740.16	311.29
-737.71	198.65
-735.27	380.92
-732.82	511.99
-730.38	450.55
-727.94	423.93
-725.50	372.73
-723.06	423.93
-720.62	391.16
-718.18	446.46
-715.74	329.72
-713.31	176.13
-710.87	518.14
-708.44	219.13
-706.01	321.53
-703.57	290.81
-701.14	421.88
-698.71	448.51
-696.28	854.00
-693.85	266.24
-691.42	552.95
-689.00	194.56
-686.57	313.34
-684.15	196.60
-681.72	245.76
-679.30	342.01
-676.88	387.07
-674.45	264.19
-672.03	327.67
-669.61	446.46
-667.20	49.15
-664.78	274.43
-662.36	167.93
-659.94	432.12
-657.53	382.97
-655.12	479.22
-652.70	606.20
-650.29	389.11
-647.88	565.24
-645.47	649.21
-643.06	262.14
-640.65	409.59
-638.24	643.06
-635.83	403.45
-633.43	270.33
-631.02	329.72
-628.62	882.67
-626.22	485.37
-623.81	557.05
-621.41	598.01
-619.01	233.47
-616.61	655.35
-614.21	657.40
-611.81	425.98
-609.42	227.32
-607.02	2148.32
-604.63	428.03
-602.23	483.32
-599.84	626.68
-597.45	507.90
-595.05	342.01
-592.66	649.21
-590.27	299.00
-587.88	374.78
-585.50	686.07
-583.11	673.78
-580.72	395.26
-578.34	516.09
-575.95	419.83
-573.57	892.91
-571.19	372.73
-568.80	520.18
-566.42	735.22
-564.04	684.02
-561.66	673.78
-559.29	225.28
-556.91	296.96
-554.53	483.32
-552.16	497.66
-549.78	765.94
-547.41	573.43
-545.03	686.07
-542.66	538.62
-540.29	428.03
-537.92	645.11
-535.55	819.19
-533.18	724.98
-530.81	339.96
-528.45	1753.06
-526.08	636.92
-523.72	634.87
-521.35	724.98
-518.99	606.20
-516.63	573.43
-514.27	714.74
-511.90	606.20
-509.54	888.82
-507.19	413.69
-504.83	419.83
-502.47	534.52
-500.11	514.04
-497.76	860.15
-495.40	780.28
-493.05	661.49
-490.70	897.01
-488.35	659.45
-486.00	667.64
-483.65	894.96
-481.30	823.28
-478.95	579.58
-476.60	1048.56
-474.25	757.75
-471.91	692.21
-469.56	796.66
-467.22	1103.86
-464.88	1040.37
-462.53	872.43
-460.19	907.25
-457.85	1245.17
-455.51	843.76
-453.17	1091.57
-450.84	1069.04
-448.50	1075.18
-446.16	1052.66
-443.83	1447.91
-441.49	1402.86
-439.16	1298.41
-436.83	1445.87
-434.50	1624.04
-432.16	1394.67
-429.83	1316.84
-427.50	1249.26
-425.18	1069.04
-422.85	1341.42
-420.52	1300.46
-418.20	1284.08
-415.87	1189.87
-413.55	1277.93
-411.22	1196.01
-408.90	911.35
-406.58	860.15
-404.26	638.97
-401.94	956.40
-399.62	909.30
-397.30	886.77
-394.99	888.82
-392.67	917.49
-390.35	813.04
-388.04	970.74
-385.73	1075.18
-383.41	499.70
-381.10	972.79
-378.79	927.73
-376.48	937.97
-374.17	1083.38
-371.86	946.16
-369.55	907.25
-367.25	964.59
-364.94	1030.13
-362.64	948.21
-360.33	980.98
-358.03	720.89
-355.73	913.39
-353.42	854.00
-351.12	1003.50
-348.82	774.13
-346.52	989.17
-344.23	974.83
-341.93	1130.48
-339.63	1026.03
-337.34	956.40
-335.04	559.10
-332.75	983.03
-330.45	563.19
-328.16	751.60
-325.87	626.68
-323.58	700.41
-321.29	718.84
-319.00	677.88
-316.71	337.91
-314.42	286.72
-312.14	446.46
-309.85	151.55
-307.57	468.98
-305.28	114.69
-303.00	419.83
-300.72	579.58
-298.44	368.63
-296.16	186.37
-293.88	67.58
-291.60	256.00
-289.32	526.33
-287.04	372.73
-284.77	442.36
-282.49	202.75
-280.22	8.19
-277.94	552.95
-275.67	333.82
-273.40	452.60
-271.13	393.21
-268.85	409.59
-266.59	61.44
-264.32	229.37
-262.05	182.27
-259.78	30.72
-257.51	374.78
-255.25	196.60
-252.98	395.26
-250.72	563.19
-248.46	483.32
-246.20	-24.58
-243.93	378.87
-241.67	59.39
-239.41	405.50
-237.16	172.03
-234.90	200.70
-232.64	196.60
-230.38	296.96
-228.13	333.82
-225.87	290.81
-223.62	22.53
-221.37	118.78
-219.11	499.70
-216.86	65.53
-214.61	143.36
-212.36	462.84
-210.11	555.00
-207.87	77.82
-205.62	163.84
-203.37	272.38
-201.13	364.54
-198.88	407.55
-196.64	456.70
-194.39	401.40
-192.15	182.27
-189.91	565.24
-187.67	497.66
-185.43	-16.38
-183.19	272.38
-180.95	270.33
-178.72	342.01
-176.48	411.64
-174.24	243.71
-172.01	282.62
-169.77	253.95
-167.54	182.27
-165.31	456.70
-163.08	192.51
-160.85	215.04
-158.62	178.17
-156.39	434.17
-154.16	212.99
-151.93	438.27
-149.70	430.07
-147.48	577.53
-145.25	112.64
-143.03	225.28
-140.81	188.41
-138.58	65.53
-136.36	331.77
-134.14	-55.30
-131.92	493.56
-129.70	364.54
-127.48	442.36
-125.26	282.62
-123.05	184.32
-120.83	178.17
-118.62	305.15
-116.40	567.29
-114.19	391.16
-111.97	-86.01
-109.76	-63.49
-107.55	77.82
-105.34	481.27
-103.13	292.86
-100.92	299.00
-98.71	374.78
-96.51	262.14
-94.30	397.31
-92.09	301.05
-89.89	417.79
-87.69	436.22
-85.48	796.66
-83.28	348.15
-81.08	460.79
-78.88	405.50
-76.68	356.35
-74.48	167.93
-72.28	278.52
-70.08	411.64
-67.88	342.01
-65.69	528.38
-63.49	559.10
-61.30	534.52
-59.11	421.88
-56.91	542.71
-54.72	286.72
-52.53	378.87
-50.34	616.44
-48.15	589.82
-45.96	155.65
-43.77	190.46
-41.59	299.00
-39.40	141.31
-37.21	296.96
-35.03	307.20
-32.84	251.90
-30.66	600.05
-28.48	577.53
-26.30	780.28
-24.12	829.43
-21.94	1929.19
-19.76	3241.93
-17.58	5568.43
-15.40	8583.04
-13.22	15130.39
-11.05	20666.05
-8.87	27321.95
-6.70	34909.68
-4.52	36949.45
-2.35	34192.89
-0.18	39427.49
1.99	37766.59
4.16	36179.42
6.33	28524.11
8.50	22972.07
10.67	18804.45
12.84	15847.18
15.00	12699.45
17.17	11759.44
19.33	10004.33
21.50	7571.34
23.66	6033.32
25.83	4810.68
27.99	2922.45
30.15	2359.26
32.31	1429.48
34.47	1050.61
36.63	811.00
38.79	839.67
40.94	581.62
43.10	624.63
45.25	376.83
47.41	522.23
49.56	464.89
51.72	301.05
53.87	319.48
56.02	550.90
58.17	305.15
60.32	-38.91
62.47	256.00
64.62	337.91
66.77	294.91
68.92	182.27
71.06	501.75
73.21	153.60
75.35	520.18
77.50	399.35
79.64	811.00
81.78	-6.14
83.92	282.62
86.06	546.81
88.20	557.05
90.34	438.27
92.48	423.93
94.62	305.15
96.76	165.89
98.89	579.58
101.03	360.44
103.16	376.83
105.30	577.53
107.43	813.04
109.56	288.76
111.69	559.10
113.82	419.83
115.95	352.25
118.08	301.05
120.21	655.35
122.34	7939.97
124.47	262.14
126.59	583.67
128.72	380.92
130.84	346.11
132.97	104.45
135.09	448.51
137.21	346.11
139.33	204.80
141.45	368.63
143.57	288.76
145.69	372.73
147.81	491.51
149.93	784.37
152.05	178.17
154.16	428.03
156.28	352.25
158.39	88.06
160.51	614.39
162.62	421.88
164.73	499.70
166.85	382.97
168.96	346.11
171.07	311.29
173.18	452.60
175.28	286.72
177.39	110.59
179.50	264.19
181.61	477.18
183.71	458.74
185.82	446.46
187.92	206.84
190.02	368.63
192.13	196.60
194.23	245.76
196.33	403.45
198.43	442.36
200.53	346.11
202.63	458.74
204.72	278.52
206.82	360.44
208.92	12.29
211.01	268.28
213.11	190.46
215.20	376.83
217.30	299.00
219.39	442.36
221.48	759.80
223.57	120.83
225.66	686.07
227.75	204.80
229.84	581.62
231.93	438.27
234.02	505.85
236.10	311.29
238.19	544.76
240.28	575.48
242.36	454.65
244.44	520.18
246.53	468.98
248.61	659.45
250.69	630.77
252.77	884.72
254.85	950.26
256.93	985.07
259.01	1218.54
261.09	1390.57
263.16	1441.77
265.24	1607.66
267.32	2078.69
269.39	2129.89
271.46	2207.71
273.54	2494.43
275.61	2701.27
277.68	3026.90
279.75	2936.79
281.82	3086.29
283.89	3198.93
285.96	3002.32
288.03	2748.37
290.10	3272.65
292.16	3303.37
294.23	3330.00
296.29	3346.38
298.36	3336.14
300.42	2789.33
302.49	3166.16
304.55	3039.19
306.61	3004.37
308.67	1568.74
310.73	2961.36
312.79	3047.38
314.85	2875.35
316.90	2971.60
318.96	3041.23
321.02	2924.50
323.07	2856.92
325.13	2977.75
327.18	2760.66
329.24	3057.62
331.29	2891.73
333.34	3084.24
335.39	2979.79
337.44	2899.92
339.49	2840.53
341.54	3037.14
343.59	2861.01
345.64	3098.58
347.68	2936.79
349.73	2844.63
351.77	2625.50
353.82	2883.54
355.86	2727.89
357.90	2918.36
359.95	3168.21
361.99	3133.39
364.03	3178.45
366.07	3082.19
368.11	2684.89
370.15	3063.76
372.19	3104.72
374.22	2912.21
376.26	3254.22
378.29	3145.68
380.33	2691.03
382.36	3012.56
384.40	2951.12
386.43	10841.95
388.46	3084.24
390.49	3299.28
392.52	3090.38
394.55	3323.85
396.58	3411.92
398.61	3428.30
400.64	3284.94
402.67	3493.83
404.69	3633.10
406.72	3819.46
408.74	4091.84
410.77	4360.13
412.79	4450.24
414.81	4794.29
416.84	5349.29
418.86	5910.44
420.88	5855.14
422.90	6588.32
424.92	6842.26
426.94	7487.37
428.95	7559.05
430.97	8046.47
432.99	7997.32
435.00	7950.21
437.02	8269.70
439.03	7890.82
441.04	7716.75
443.06	7782.28
445.07	6786.97
447.08	6457.25
449.09	6244.26
451.10	5937.06
453.11	5451.69
455.12	5658.54
457.13	4915.12
459.13	5066.67
461.14	4708.28
463.14	4405.18
465.15	4059.07
467.15	4204.48
469.16	3813.32
471.16	3831.75
473.16	3672.01
475.16	3280.85
477.16	3424.20
479.16	3305.42
481.16	3712.97
483.16	3354.57
485.16	3186.64
487.15	3030.99
489.15	3157.97
491.15	2965.46
493.14	3129.30
495.14	3039.19
497.13	2660.31
499.12	2799.57
501.11	3043.28
503.11	3141.58
505.10	2940.88
507.09	2926.55
509.07	2770.90
511.06	2682.84
513.05	2394.08
515.04	2584.54
517.02	2797.53
519.01	2662.36
521.00	2473.95
522.98	2891.73
524.96	2799.57
526.95	2906.07
528.93	2879.44
530.91	2713.56
532.89	2707.41
534.87	2797.53
536.85	1529.83
538.83	2494.43
540.81	2719.70
542.78	2539.48
544.76	2455.51
546.74	2711.51
548.71	2490.33
550.69	2406.36
552.66	2699.22
554.63	2705.37
556.60	2727.89
558.58	2725.85
560.55	2555.86
562.52	2926.55
564.49	2670.55
566.46	2975.70
568.42	2725.85
570.39	2840.53
572.36	2783.19
574.32	2451.42
576.29	2777.05
578.25	3057.62
580.22	2371.55
582.18	2473.95
584.14	2996.18
586.11	2682.84
588.07	2734.04
590.03	2392.03
591.99	2422.75
593.95	2469.85
595.90	2570.20
597.86	2822.10
599.82	2428.89
601.78	2658.26
603.73	2660.31
605.69	2432.99
607.64	2893.78
609.59	2664.41
611.55	2426.84
613.50	2310.11
615.45	2498.52
617.40	2398.17
619.35	2607.06
621.30	2422.75
623.25	2617.30
625.20	2609.11
627.15	2971.60
629.09	2594.78
631.04	2449.37
632.98	2707.41
634.93	2422.75
636.87	2418.65
638.82	2363.36
640.76	2473.95
642.70	2670.55
644.64	2592.73
646.58	2531.29
648.52	2557.91
650.46	2504.67
652.40	2455.51
654.34	2336.73
656.27	2535.39
658.21	2754.52
660.15	2430.94
662.08	2648.02
664.02	2609.11
665.95	2383.84
667.88	2353.12
669.82	2482.14
671.75	2498.52
673.68	2746.33
675.61	2576.34
677.54	2707.41
679.47	2365.40
681.40	2656.22
683.32	2562.01
685.25	2480.09
687.18	2428.89
689.10	2459.61
691.03	2660.31
692.95	2602.97
694.87	2365.40
696.80	2404.32
698.72	2594.78
700.64	2392.03
702.56	2451.42
704.48	2377.69
706.40	2308.06
708.32	2555.86
710.24	2586.58
712.16	2478.04
714.07	2791.38
715.99	2531.29
717.90	2723.80
719.82	2578.39
721.73	2494.43
723.65	2670.55
725.56	2664.41
727.47	2430.94
729.38	2598.87
731.29	2459.61
733.20	2475.99
735.11	2523.10
737.02	2639.83
738.93	2627.54
740.84	2684.89
742.74	2422.75
744.65	2490.33
746.55	2613.21
748.46	2447.32
750.36	2832.34
752.27	2394.08
754.17	2617.30
756.07	2555.86
757.97	2605.02
759.87	2627.54
761.77	2699.22
763.67	2678.74
765.57	2291.68
767.47	2678.74
769.37	2598.87
771.26	2713.56
773.16	2535.39
775.06	2752.47
776.95	2572.25
778.84	2820.05
780.74	2482.14
782.63	2596.82
784.52	2609.11
786.41	2684.89
788.30	2752.47
790.19	2824.15
792.08	2889.68
793.97	2994.13
795.86	3180.50
797.75	3233.74
799.63	3356.62
801.52	2895.83
803.41	3239.89
805.29	3307.47
807.18	3198.93
809.06	3164.11
810.94	3475.40
812.82	3577.80
814.70	3397.58
816.59	3291.09
818.47	3270.61
820.35	3237.84
822.22	3336.14
824.10	3452.88
825.98	3059.67
827.86	3147.73
829.73	3471.31
831.61	3399.63
833.48	3479.50
835.36	3639.24
837.23	3588.04
839.10	3760.07
840.98	3405.77
842.85	4294.59
844.72	4087.75
846.59	3893.19
848.46	4378.56
850.33	4689.85
852.20	4530.11
854.06	5203.89
855.93	5627.82
857.80	6264.74
859.66	6709.15
861.53	7671.69
863.39	8523.65
865.26	10981.21
867.12	12242.76
868.98	16502.53
870.84	21405.37
872.71	25714.30
874.57	30907.94
876.43	35954.14
878.29	40437.14
880.14	44983.63
882.00	46691.64
883.86	44977.49
885.72	45112.66
887.57	39787.94
889.43	39466.41
891.28	34811.37
893.14	30561.84
894.99	27240.03
896.84	22652.58
898.69	19244.76
900.55	15974.16
902.40	13479.73
904.25	11687.76
906.10	9758.57
907.95	9052.02
909.79	7645.07
911.64	6612.89
913.49	5851.05
915.34	5324.72
917.18	4829.11
919.03	4513.72
920.87	4706.23
922.71	4253.63
924.56	4167.62
926.40	3655.62
928.24	3803.08
930.08	3682.25
931.92	3446.73
933.76	3598.28
935.60	3585.99
937.44	3114.96
939.28	3172.30
941.12	3170.26
942.95	3139.54
944.79	2912.21
946.62	3225.55
948.46	2764.76
950.29	2846.68
952.13	2953.17
953.96	2940.88
955.79	2830.29
957.62	2957.27
959.46	2461.66
961.29	2789.33
963.12	2725.85
964.94	2867.16
966.77	2901.97
968.60	2885.59
970.43	2873.30
972.25	3096.53
974.08	2897.88
975.91	2613.21
977.73	2785.24
979.55	2818.00
981.38	2904.02
983.20	2662.36
985.02	3117.01
986.84	2785.24
988.66	2996.18
990.49	2949.07
992.30	2918.36
994.12	3028.95
995.94	2973.65
997.76	3127.25
999.58	3643.34
1001.39	3411.92
1003.21	3434.44
1005.02	3567.56
1006.84	3194.83
1008.65	3948.48
1010.47	3833.80
1012.28	4048.83
1014.09	4011.97
1015.90	4411.32
1017.71	4407.23
1019.52	4566.97
1021.33	3706.82
1023.14	5076.91
1024.95	5033.91
1026.76	5400.49
1028.56	5947.30
1030.37	6428.57
1032.18	7071.64
1033.98	7747.47
1035.79	8281.99
1037.59	9213.81
1039.39	10200.93
1041.20	11331.41
1043.00	11874.12
1044.80	12767.04
1046.60	14423.84
1048.40	14849.82
1050.20	15316.76
1052.00	15832.85
1053.80	14446.37
1055.59	14909.21
1057.39	14769.95
1059.19	14280.49
1060.98	13190.97
1062.78	12439.36
1064.57	12253.00
1066.37	11413.33
1068.16	11728.72
1069.95	11212.63
1071.75	11554.64
1073.54	11333.46
1075.33	11732.81
1077.12	12093.26
1078.91	12126.02
1080.70	12414.79
1082.48	14262.05
1084.27	14397.22
1086.06	16043.79
1087.85	16455.43
1089.63	18020.08
1091.42	18616.04
1093.20	18994.91
1094.99	18472.68
1096.77	19271.39
1098.55	19070.68
1100.33	18317.03
1102.12	17225.47
1103.90	16420.61
1105.68	14855.97
1107.46	13881.13
1109.24	13438.77
1111.01	12025.67
1112.79	11349.84
1114.57	10399.59
1116.35	9717.61
1118.12	9498.48
1119.90	8961.91
1121.67	7839.62
1123.45	7849.86
1125.22	7106.45
1126.99	7104.40
1128.77	6903.70
1130.54	6528.92
1132.31	6166.43
1134.08	6154.15
1135.85	5767.08
1137.62	5388.21
1139.39	4978.61
1141.15	4667.32
1142.92	4235.20
1144.69	4282.30
1146.46	4018.11
1148.22	4048.83
1149.99	4079.55
1151.75	3733.45
1153.51	3731.40
1155.28	3377.10
1157.04	3645.38
1158.80	3921.86
1160.56	3385.29
1162.32	3450.83
1164.08	3370.96
1165.84	3362.76
1167.60	3200.98
1169.36	3416.01
1171.12	3440.59
1172.88	3051.47
1174.63	3051.47
1176.39	3246.03
1178.14	2846.68
1179.90	2967.51
1181.65	3047.38
1183.41	2914.26
1185.16	2684.89
1186.91	2848.72
1188.66	2949.08
1190.41	2826.20
1192.16	2766.81
1193.91	2754.52
1195.66	2451.42
1197.41	2691.03
1199.16	3010.51
1200.91	2697.17
1202.66	2957.27
1204.40	3020.75
1206.15	2918.36
1207.89	2605.02
1209.64	2987.99
1211.38	3143.63
1213.12	2777.05
1214.87	2365.40
1216.61	2787.29
1218.35	2811.86
1220.09	2996.18
1221.83	2951.12
1223.57	3006.42
1225.31	2871.25
1227.05	3309.52
1228.79	2844.63
1230.52	3327.95
1232.26	3135.44
1234.00	2963.41
1235.73	3297.23
1237.47	3268.56
1239.20	3407.82
1240.94	3428.30
1242.67	3624.90
1244.40	3350.48
1246.13	3846.09
1247.86	3647.43
1249.60	3942.34
1251.33	4261.82
1253.06	4448.19
1254.78	4616.12
1256.51	5033.91
1258.24	5179.31
1259.97	5269.42
1261.69	5689.26
1263.42	5857.19
1265.15	6451.10
1266.87	7018.39
1268.59	7229.33
1270.32	7714.70
1272.04	8058.76
1273.76	8273.79
1275.49	8423.30
1277.21	8476.54
1278.93	8662.91
1280.65	8281.99
1282.37	7960.45
1284.09	7509.90
1285.81	7139.22
1287.52	7047.06
1289.24	6475.68
1290.96	6129.57
1292.67	5808.04
1294.39	5433.26
1296.10	5121.97
1297.82	4872.12
1299.53	4673.46
1301.24	4548.54
1302.96	4435.90
1304.67	4403.13
1306.38	4280.25
1308.09	4149.18
1309.80	3669.96
1311.51	3735.49
1313.22	4130.75
1314.93	3452.88
1316.64	3913.67
1318.34	3891.14
1320.05	3639.24
1321.75	3608.52
1323.46	4036.55
1325.17	3690.44
1326.87	3655.62
1328.57	3301.33
1330.28	3563.47
1331.98	3641.29
1333.68	3612.62
1335.38	3508.17
1337.08	3411.92
1338.78	3858.37
1340.48	3866.56
1342.18	3776.45
1343.88	3637.19
1345.58	3764.17
1347.28	3866.56
1348.97	3633.10
1350.67	3950.53
1352.36	3964.87
1354.06	4313.02
1355.75	3858.37
1357.45	3938.24
1359.14	4046.79
1360.83	3952.58
1362.53	4116.42
1364.22	4212.67
1365.91	4212.67
1367.60	4163.52
1369.29	4401.08
1370.98	4661.18
1372.67	4648.89
1374.35	4196.29
1376.04	5033.91
1377.73	5138.35
1379.41	4767.67
1381.10	4616.12
1382.79	5674.92
1384.47	5287.86
1386.15	5345.20
1387.84	5412.78
1389.52	5339.05
1391.20	5500.84
1392.88	4962.23
1394.57	5740.46
1396.25	5619.63
1397.93	5744.55
1399.61	5793.70
1401.28	5939.11
1402.96	6100.90
1404.64	6234.02
1406.32	6225.82
1407.99	6264.74
1409.67	6619.04
1411.35	6864.79
1413.02	7010.20
1414.70	7047.06
1416.37	7415.69
1418.04	7231.38
1419.71	7116.69
1421.39	7716.75
1423.06	7882.63
1424.73	7894.92
1426.40	8322.94
1428.07	8761.21
1429.74	8968.06
1431.41	9373.55
1433.08	10016.62
1434.74	10383.20
1436.41	11374.42
1438.08	11822.92
1439.74	12142.41
1441.41	13444.91
1443.07	14843.68
1444.74	15957.77
1446.40	16992.00
1448.06	17682.16
1449.72	18368.23
1451.39	19218.14
1453.05	19541.72
1454.71	19990.22
1456.37	19183.32
1458.03	17467.13
1459.69	18403.05
1461.35	18044.65
1463.00	16242.44
1464.66	15494.93
1466.32	14395.17
1467.97	13674.29
1469.63	12762.94
1471.28	12459.84
1472.94	11554.64
1474.59	11474.77
1476.25	11065.18
1477.90	10899.29
1479.55	10782.56
1481.20	10467.17
1482.85	10231.65
1484.50	10164.07
1486.15	9303.92
1487.80	8720.25
1489.45	8124.29
1491.10	8220.55
1492.75	8077.19
1494.40	7939.97
1496.04	7124.88
1497.69	6938.52
1499.33	6580.12
1500.98	6533.02
1502.62	5853.09
1504.27	5912.49
1505.91	5382.06
1507.55	5496.75
1509.19	4755.38
1510.84	4927.41
1512.48	4726.71
1514.12	4593.59
1515.76	4388.80
1517.40	4560.83
1519.04	4208.58
1520.67	4304.83
1522.31	4140.99
1523.95	3243.98
1525.59	4329.41
1527.22	3741.64
1528.86	3557.32
1530.49	3321.81
1532.13	3436.49
1533.76	3712.97
1535.39	3655.62
1537.03	3723.21
1538.66	3624.90
1540.29	3260.37
1541.92	3383.24
1543.55	3428.30
1545.18	3538.89
1546.81	3098.58
1548.44	3364.81
1550.07	3170.26
1551.70	3286.99
1553.32	3237.84
1554.95	3059.67
1556.58	2891.73
1558.20	2947.03
1559.83	2990.03
1561.45	2639.83
1563.07	2580.44
1564.70	2924.50
1566.32	2359.26
1567.94	2715.61
1569.56	2598.87
1571.19	2627.54
1572.81	2840.53
1574.43	2676.70
1576.05	2643.93
1577.66	2725.85
1579.28	2443.23
1580.90	2516.95
1582.52	962.55
1584.14	2484.19
1585.75	2944.98
1587.37	2545.63
1588.98	2553.82
1590.60	2574.30
1592.21	2263.01
1593.82	2133.98
1595.44	2338.78
1597.05	2420.70
1598.66	2273.25
1600.27	2224.09
1601.88	2242.53
1603.49	-8906.62
1605.10	2361.31
1606.71	2510.81
1608.32	2293.73
1609.93	2293.73
1611.54	2500.57
1613.14	2195.42
1614.75	2469.85
1616.36	2502.62
1617.96	2453.47
1619.57	2549.72
1621.17	2287.58
1622.77	2457.56
1624.38	2234.33
1625.98	2256.86
1627.58	2136.03
1629.18	2185.18
1630.78	2103.26
1632.38	2353.12
1633.98	2205.66
1635.58	2359.26
1637.18	2412.51
1638.78	2473.95
1640.38	2430.94
1641.98	1955.81
1643.57	2402.27
1645.17	2156.51
1646.76	2236.38
1648.36	2240.48
1649.95	2060.26
1651.55	2150.37
1653.14	2181.09
1654.73	2183.13
1656.33	2179.04
1657.92	2019.30
1659.51	2133.98
1661.10	2168.80
1662.69	2076.64
1664.28	2023.39
1665.87	2066.40
1667.46	2103.26
1669.05	2066.40
1670.63	2101.22
1672.22	1763.30
1673.81	1961.95
1675.39	1945.57
1676.98	2115.55
1678.56	1720.29
1680.15	2351.07
1681.73	2238.43
1683.31	2164.70
1684.90	1953.76
1686.48	2099.17
1688.06	1822.69
1689.64	2136.03
1691.22	1871.84
1692.80	1884.13
1694.38	2072.54
1695.96	2138.08
1697.54	2529.24
1699.12	1941.47
1700.69	2154.46
1702.27	1992.67
1703.85	1765.35
1705.42	1959.91
1707.00	1830.88
1708.57	2148.32
1710.15	2183.13
1711.72	1880.04
1713.29	2154.46
1714.87	1896.42
1716.44	1882.08
1718.01	1949.67
1719.58	1708.01
1721.15	1937.38
1722.72	2078.69
1724.29	1966.05
1725.86	1830.88
1727.43	2183.13
1729.00	1744.87
1730.56	1759.21
1732.13	1546.22
1733.70	1818.60
1735.26	2035.68
1736.83	1951.71
1738.39	1847.27
1739.96	2131.94
1741.52	2187.23
1743.08	1949.67
1744.65	1492.97
1746.21	2027.49
1747.77	1830.88
1749.33	1837.03
1750.89	1615.85
1752.45	1802.21
1754.01	1583.08
1755.57	1621.99
1757.13	1673.19
1758.69	1961.95
1760.24	1900.51
1761.80	1662.95
1763.36	1427.43
1764.91	2000.87
1766.47	1722.34
1768.02	1875.94
1769.58	1730.53
1771.13	1839.08
1772.68	1638.38
1774.24	1839.08
1775.79	1675.24
1777.34	1630.18
1778.89	1931.23
1780.44	1667.05
1781.99	1497.07
1783.54	1626.09
1785.09	1515.50
1786.64	1437.67
1788.19	1576.94
1789.73	1425.39
1791.28	1746.92
1792.83	1492.97
1794.37	1601.51
1795.92	1691.62
1797.46	1716.20
1799.01	1646.57
1800.55	1673.19
1802.09	1830.88
1803.64	1683.43
1805.18	1691.62
1806.72	1411.05
1808.26	1449.96
1809.80	1765.35
1811.34	1581.03
1812.88	1382.38
1814.42	1533.93
1815.96	1773.54
1817.50	1597.42
1819.04	1581.03
1820.57	1708.01
1822.11	1695.72
1823.65	1619.94
1825.18	1808.36
1826.72	1587.18
1828.25	1642.47
1829.78	1531.88
1831.32	1296.36
1832.85	1753.06
1834.38	1832.93
1835.92	1605.61
1837.45	1529.83
1838.98	1513.45
1840.51	1462.25
1842.04	1599.46
1843.57	1452.01
1845.10	1585.13
1846.62	1875.94
1848.15	1404.91
1849.68	1677.29
1851.21	1773.54
1852.73	1529.83
1854.26	1644.52
1855.78	1679.33
1857.31	1566.70
1858.83	1669.09
1860.36	1656.81
1861.88	1296.36
1863.40	1751.01
1864.92	1456.11
1866.45	1621.99
1867.97	1636.33
1869.49	1538.02
1871.01	1509.35
1872.53	1867.75
1874.05	1677.29
1875.57	1740.77
1877.08	1544.17
1878.60	1699.81
1880.12	1619.94
1881.64	1546.22
1883.15	1492.97
1884.67	1474.54
1886.18	1435.63
1887.70	1388.52
1889.21	1337.32
1890.72	1613.80
1892.24	1523.69
1893.75	1562.60
1895.26	1593.32
1896.77	1492.97
1898.28	1292.27
1899.79	1716.20
1901.30	1394.67
1902.81	1683.43
1904.32	1722.34
1905.83	1568.74
1907.34	1488.87
1908.85	1406.95
1910.35	1378.28
1911.86	1589.22
1913.37	1730.53
1914.87	1669.09
1916.38	1449.96
1917.88	1531.88
1919.39	1499.11
1920.89	1775.59
1922.39	1290.22
1923.89	1406.95
1925.40	1415.15
1926.90	1443.82
1928.40	1583.08
1929.90	1654.76
1931.40	1648.61
1932.90	1685.48
1934.40	1490.92
1935.90	1648.61
1937.39	1296.36
1938.89	1687.53
1940.39	1396.71
1941.89	1640.42
1943.38	1480.68
1944.88	1384.43
1946.37	1406.95
1947.87	1544.17
1949.36	1353.71
1950.85	1533.93
1952.35	1339.37
1953.84	1136.62
1955.33	1501.16
1956.82	1294.32
1958.31	1290.22
1959.80	1685.48
1961.29	1492.97
1962.78	1492.97
1964.27	1488.87
1965.76	1558.50
1967.25	1480.68
1968.74	1718.25
1970.22	1486.83
1971.71	1589.22
1973.20	1556.46
1974.68	1484.78
1976.17	1122.29
1977.65	1482.73
1979.14	1621.99
1980.62	1636.33
1982.10	1644.52
1983.58	1605.61
1985.07	1454.06
1986.55	1390.57
1988.03	1253.36
1989.51	1490.92
1990.99	1423.34
1992.47	1353.71
1993.95	1849.32
1995.43	1236.97
1996.91	1552.36
1998.38	1632.23
1999.86	1720.29
2001.34	1519.59
2002.81	1337.32
2004.29	1562.60
2005.76	1671.14
2007.24	1562.60
2008.71	1144.81
2010.19	1572.84
2011.66	1454.06
2013.13	1425.39
2014.60	1413.10
2016.08	1290.22
2017.55	1634.28
2019.02	1443.82
2020.49	1462.25
2021.96	1257.45
2023.43	1333.23
2024.90	1234.93
2026.36	1247.21
2027.83	1273.84
2029.30	1316.84
2030.77	1134.57
2032.23	1392.62
2033.70	1349.61
2035.16	1193.97
2036.63	1368.04
2038.09	1452.01
2039.56	1437.67
2041.02	1447.91
2042.48	1363.95
2043.95	1273.84
2045.41	1366.00
2046.87	1314.80
2048.33	1241.07
2049.79	1318.89
2051.25	1466.35
2052.71	1548.26
2054.17	1404.91
2055.63	1177.58
2057.09	1535.98
2058.54	1253.36
2060.00	1308.65
2061.46	1441.77
2062.91	1548.26
2064.37	1417.19
2065.82	1148.91
2067.28	1384.43
2068.73	1173.49
2070.19	1302.51
2071.64	1196.01
2073.09	1343.47
2074.54	1339.37
2076.00	1357.80
2077.45	1339.37
2078.90	1621.99
2080.35	1366.00
2081.80	1114.09
2083.25	1460.20
2084.70	1507.31
2086.14	1277.93
2087.59	1443.82
2089.04	1642.47
2090.49	1832.93
2091.93	1290.22
2093.38	1560.55
2094.83	1351.66
2096.27	1482.73
2097.71	1468.39
2099.16	1216.49
2100.60	1245.16
2102.05	1366.00
2103.49	1621.99
2104.93	1400.81
2106.37	1286.12
2107.81	1554.41
2109.25	1228.78
2110.69	1568.74
2112.13	1241.07
2113.57	1079.28
2115.01	1409.00
2116.45	1349.61
2117.89	1439.72
2119.33	1417.19
2120.76	1316.84
2122.20	1232.88
2123.63	1226.73
2125.07	1458.15
2126.51	1341.42
2127.94	1322.99
2129.37	1236.97
2130.81	1312.75
2132.24	1427.43
2133.67	1263.60
2135.11	1359.85
2136.54	1249.26
2137.97	1392.62
2139.40	1437.67
2140.83	1331.18
2142.26	1345.52
2143.69	1277.93
2145.12	1159.15
2146.55	1435.63
2147.97	1048.56
2149.40	1325.04
2150.83	1120.24
2152.25	1382.38
2153.68	1327.08
2155.11	1583.08
2156.53	1241.07
2157.96	1146.86
2159.38	1503.21
2160.80	1150.96
2162.23	1499.11
2163.65	1038.32
2165.07	1339.37
2166.49	1394.67
2167.91	1191.92
2169.33	1028.08
2170.75	1185.77
2172.17	1267.69
2173.59	1372.14
2175.01	1290.22
2176.43	1226.73
2177.85	1353.71
2179.27	1105.90
2180.68	1425.39
2182.10	1146.86
2183.52	1425.39
2184.93	1316.84
2186.35	485.37
2187.76	1376.23
2189.18	1243.12
2190.59	1552.36
2192.00	1288.17
2193.42	878.58
2194.83	1331.18
2196.24	1226.73
2197.65	1058.80
2199.06	1456.11
2200.47	1234.93
2201.88	1212.40
2203.29	1099.76
2204.70	1126.38
2206.11	1259.50
2207.52	1212.40
2208.93	1284.08
2210.33	1337.32
2211.74	1261.55
2213.15	1322.99
2214.55	1239.02
2215.96	1497.07
2217.36	1282.03
2218.77	997.36
2220.17	1284.08
2221.57	1400.81
2222.98	1114.10
2224.38	1054.70
2225.78	1095.66
2227.18	1544.17
2228.58	1089.52
2229.99	1292.27
2231.39	1290.22
2232.79	905.20
2234.18	1210.35
2235.58	1304.56
2236.98	1224.69
2238.38	1165.29
2239.78	1124.33
2241.17	1329.13
2242.57	1390.57
2243.97	1095.66
2245.36	1376.23
2246.76	1495.02
2248.15	1382.38
2249.55	1169.39
2250.94	1533.93
2252.33	1376.24
2253.73	1292.27
2255.12	1421.29
2256.51	1519.59
2257.90	1226.73
2259.29	1310.70
2260.68	1105.90
2262.07	1452.01
2263.46	1488.87
2264.85	1079.28
2266.24	1245.17
2267.63	845.81
2269.02	1482.73
2270.40	1425.39
2271.79	1480.68
2273.18	1474.54
2274.56	1253.36
2275.95	1261.55
2277.33	1501.16
2278.72	1495.02
2280.10	1388.52
2281.49	1322.99
2282.87	1540.07
2284.25	1226.73
2285.63	1411.05
2287.02	1425.39
2288.40	1595.37
2289.78	1183.73
2291.16	1429.48
2292.54	1572.84
2293.92	1314.80
2295.30	1546.22
2296.68	1218.54
2298.05	1243.12
2299.43	1355.76
2300.81	1196.01
2302.19	1220.59
2303.56	1150.96
2304.94	1062.90
2306.31	1372.14
2307.69	1202.16
2309.06	1370.09
2310.44	1316.84
2311.81	1368.04
2313.19	1212.40
2314.56	1177.58
2315.93	1255.40
2317.30	1206.25
2318.67	1171.44
2320.04	1392.62
2321.41	1388.52
2322.78	1257.45
2324.15	1034.22
2325.52	1159.15
2326.89	1329.13
2328.26	1394.67
2329.63	1261.55
2331.00	1161.20
2332.36	1083.38
2333.73	1017.84
2335.09	1325.04
2336.46	1325.04
2337.83	903.15
2339.19	1042.42
2340.55	1179.63
2341.92	1206.25
2343.28	1243.12
2344.64	1263.60
2346.01	1050.61
2347.37	1212.40
2348.73	1105.90
2350.09	1155.05
2351.45	1081.33
2352.81	993.26
2354.17	-2457.56
2355.53	1298.41
2356.89	1056.75
2358.25	1066.99
2359.61	956.40
2360.96	952.31
2362.32	1060.85
2363.68	1107.95
2365.03	1208.30
2366.39	1460.20
2367.74	1081.33
2369.10	1206.25
2370.45	1077.23
2371.81	1028.08
2373.16	1026.03
2374.51	1066.99
2375.86	813.04
2377.22	1257.45
2378.57	1081.33
2379.92	1046.51
2381.27	999.41
2382.62	1122.29
2383.97	503.80
2385.32	1341.42
2386.67	1023.98
2388.02	1255.40
2389.37	1075.18
2390.71	1040.37
2392.06	1069.04
2393.41	1329.13
2394.75	1142.77
2396.10	1236.97
2397.44	1150.96
2398.79	1384.43
2400.13	1132.53
2401.48	1318.89
2402.82	1138.67
2404.17	1193.97
2405.51	1447.91
2406.85	1273.84
2408.19	1155.05
2409.53	1103.86
2410.87	1259.50
2412.22	833.52
2413.56	1193.97
2414.89	1431.53
2416.23	1642.47
2417.57	1128.43
2418.91	1347.56
2420.25	1341.42
2421.59	1445.87
2422.92	1107.95
2424.26	1406.95
2425.60	1220.59
2426.93	1126.38
2428.27	1259.50
2429.60	1417.19
2430.94	1056.75
2432.27	1204.21
2433.60	1196.01
2434.94	1361.90
2436.27	1466.35
2437.60	1230.83
2438.93	962.55
2440.27	1308.65
2441.60	1368.04
2442.93	1239.02
2444.26	1486.83
2445.59	1263.60
2446.92	1173.49
2448.24	1069.04
2449.57	1159.15
2450.90	1265.64
2452.23	1079.28
2453.55	1445.87
2454.88	1314.80
2456.21	1296.36
2457.53	1380.33
2458.86	1304.56
2460.18	1308.65
2461.51	1259.50
2462.83	1226.73
2464.15	1288.17
2465.48	1216.49
2466.80	1232.88
2468.12	1150.96
2469.44	1304.56
2470.76	1386.47
2472.09	1470.44
2473.41	1396.71
2474.73	983.02
2476.05	1110.00
2477.36	1634.28
2478.68	1202.16
2480.00	1349.61
2481.32	1304.56
2482.64	1685.48
2483.95	1296.36
2485.27	1501.16
2486.59	1273.84
2487.90	1249.26
2489.22	1361.90
2490.53	1361.90
2491.85	1669.09
2493.16	1200.11
2494.47	1376.23
2495.79	1187.82
2497.10	980.98
2498.41	1443.82
2499.72	1232.88
2501.03	1380.33
2502.35	1390.57
2503.66	1165.29
2504.97	1265.64
2506.28	1038.32
2507.59	1370.09
2508.89	827.38
2510.20	1417.19
2511.51	1198.06
2512.82	1304.56
2514.12	645.11
2515.43	1300.46
2516.74	1472.49
2518.04	2054.11
2519.35	1462.25
2520.65	1411.05
2521.96	1511.40
2523.26	1322.99
2524.57	1490.92
2525.87	1345.52
2527.17	1560.55
2528.47	1267.69
2529.78	1560.55
2531.08	1671.14
2532.38	1955.81
2533.68	1578.98
2534.98	1724.39
2536.28	1691.62
2537.58	1683.43
2538.88	1787.88
2540.18	1802.21
2541.47	1910.75
2542.77	2101.22
2544.07	1791.97
2545.37	1808.36
2546.66	2035.68
2547.96	1875.94
2549.25	1957.86
2550.55	1966.05
2551.84	1953.76
2553.14	1677.29
2554.43	1808.36
2555.72	1599.46
2557.02	1853.41
2558.31	1775.59
2559.60	1728.49
2560.89	1826.79
2562.18	1818.60
2563.48	1798.12
2564.77	1411.05
2566.06	1769.44
2567.35	1558.50
2568.63	1540.07
2569.92	1507.31
2571.21	1720.29
2572.50	1468.39
2573.79	1861.60
2575.07	1572.84
2576.36	1818.60
2577.65	1675.24
2578.93	1734.63
2580.22	1992.67
2581.50	1964.00
2582.79	1685.48
2584.07	1724.39
2585.36	1613.80
2586.64	1513.45
2587.92	1857.51
2589.20	1810.40
2590.49	1593.32
2591.77	1542.12
2593.05	1654.76
2594.33	1538.02
2595.61	1951.71
2596.89	1601.51
2598.17	1843.17
2599.45	1654.76
2600.73	1751.01
2602.00	1583.08
2603.28	1785.83
2604.56	1785.83
2605.84	1710.05
2607.11	1855.46
2608.39	1650.66
2609.67	1888.23
2610.94	2035.68
2612.22	1636.33
2613.49	1273.84
2614.76	1531.88
2616.04	1576.94
2617.31	1599.46
2618.58	1695.72
2619.86	1464.30
2621.13	1955.81
2622.40	1519.59
2623.67	1656.81
2624.94	1667.05
2626.21	1482.73
2627.48	1710.05
2628.75	1765.35
2630.02	1744.87
2631.29	1748.97
2632.56	1826.79
2633.82	1574.89
2635.09	1572.84
2636.36	2131.94
2637.63	1775.59
2638.89	1775.59
2640.16	1683.43
2641.42	2103.26
2642.69	1892.32
2643.95	1873.89
2645.22	1748.97
2646.48	1607.66
2647.74	1900.51
2649.01	1945.57
2650.27	1701.86
2651.53	1689.57
2652.79	1970.15
2654.05	1861.60
2655.31	2039.78
2656.57	1882.08
2657.83	1808.36
2659.09	2043.87
2660.35	1779.68
2661.61	2160.61
2662.87	4034.50
2664.13	2287.58
2665.38	2027.49
2666.64	2275.29
2667.90	2168.80
2669.15	2584.54
2670.41	2086.88
2671.67	2246.62
2672.92	2412.51
2674.17	2381.79
2675.43	2592.73
2676.68	2602.97
2677.94	2611.16
2679.19	2777.05
2680.44	2559.96
2681.69	2846.68
2682.95	3203.02
2684.20	3047.38
2685.45	3426.25
2686.70	3665.86
2687.95	3549.13
2689.20	3661.77
2690.45	3815.37
2691.70	4147.14
2692.94	3827.65
2694.19	4487.10
2695.44	4659.13
2696.69	4505.53
2697.93	4796.34
2699.18	5824.42
2700.43	5699.50
2701.67	6070.18
2702.92	6344.61
2704.16	6846.36
2705.41	7499.66
2706.65	7071.64
2707.89	7909.26
2709.14	8025.99
2710.38	7692.17
2711.62	8595.32
2712.86	8652.67
2714.11	8548.22
2715.35	8767.35
2716.59	8376.19
2717.83	7147.41
2719.07	8458.11
2720.31	8484.73
2721.55	8742.78
2722.78	8335.23
2724.02	8415.10
2725.26	7980.93
2726.50	8003.46
2727.73	7796.62
2728.97	7585.68
2730.21	6832.02
2731.44	7124.88
2732.68	6758.30
2733.91	7096.21
2735.15	6924.18
2736.38	6866.84
2737.62	7157.65
2738.85	6649.75
2740.08	7018.39
2741.32	7368.59
2742.55	6930.33
2743.78	7057.30
2745.01	7176.08
2746.24	7384.98
2747.47	7317.39
2748.70	7286.67
2749.93	7411.60
2751.16	7735.18
2752.39	7112.60
2753.62	7104.40
2754.85	7139.22
2756.08	7098.26
2757.30	6717.34
2758.53	6203.30
2759.76	6713.24
2760.98	6584.22
2762.21	6530.97
2763.43	5889.96
2764.66	5779.37
2765.88	5998.50
2767.11	5959.59
2768.33	5445.55
2769.55	5930.92
2770.78	4863.93
2772.00	5380.01
2773.22	5177.26
2774.44	5791.66
2775.67	5494.70
2776.89	5298.10
2778.11	5443.50
2779.33	5455.79
2780.55	5758.89
2781.77	5541.80
2782.99	5382.06
2784.20	5363.63
2785.42	5619.63
2786.64	5746.60
2787.86	5793.70
2789.07	5943.21
2790.29	5332.91
2791.51	5873.57
2792.72	5898.15
2793.94	5601.19
2795.15	6422.43
2796.37	6213.54
2797.58	6463.39
2798.80	6479.77
2800.01	6926.23
2801.22	7047.06
2802.44	6936.47
2803.65	6813.59
2804.86	7198.61
2806.07	7716.75
2807.28	7692.17
2808.49	7896.97
2809.70	8507.26
2810.91	8470.40
2812.12	8787.83
2813.33	8976.25
2814.54	9682.80
2815.75	9103.22
2816.96	9850.73
2818.16	9598.83
2819.37	10866.52
2820.58	11589.46
2821.78	11558.74
2822.99	11962.19
2824.20	12445.51
2825.40	12881.72
2826.61	13735.73
2827.81	13709.10
2829.01	14204.71
2830.22	14841.63
2831.42	15202.07
2832.62	15318.81
2833.83	15361.81
2835.03	17059.58
2836.23	17549.04
2837.43	17891.06
2838.63	18343.66
2839.83	18595.56
2841.03	18581.22
2842.23	19885.78
2843.43	20489.93
2844.63	20713.16
2845.83	21028.54
2847.03	21892.79
2848.22	21835.44
2849.42	24125.07
2850.62	25161.34
2851.81	26973.80
2853.01	27993.68
2854.21	29052.48
2855.40	29351.49
2856.60	29482.56
2857.79	32984.58
2858.99	34768.37
2860.18	36330.97
2861.37	38376.89
2862.57	41250.19
2863.76	43615.59
2864.95	46724.41
2866.14	47521.07
2867.33	52661.47
2868.52	54305.99
2869.72	57255.06
2870.91	54887.61
2872.10	48567.58
2873.28	57988.24
2874.47	47996.20
2875.66	51786.99
2876.85	48801.05
2878.04	44053.86
2879.23	42298.75
2880.41	55516.34
2881.60	57126.04
2882.79	52896.98
2883.97	58717.31
2885.16	52471.01
2886.34	54164.68
2887.53	48368.93
2888.71	50943.22
2889.90	55555.25
2891.08	56716.45
2892.26	53877.96
2893.45	54791.36
2894.63	55606.45
2895.81	56034.47
2896.99	58207.37
2898.17	49675.53
2899.36	50808.06
2900.54	49540.36
2901.72	51553.52
2902.90	51303.67
2904.08	53128.41
2905.26	51258.61
2906.43	58174.60
2907.61	51434.74
2908.79	41250.19
2909.97	57009.31
2911.14	53587.15
2912.32	52839.64
2913.50	53681.36
2914.67	54529.22
2915.85	51504.37
2917.02	55774.38
2918.20	57928.84
2919.37	54172.87
2920.55	54809.79
2921.72	54635.71
2922.90	49507.60
2924.07	51786.99
2925.24	47801.64
2926.41	59229.30
2927.58	52860.12
2928.76	58014.86
2929.93	50470.14
2931.10	56714.40
2932.27	55069.88
2933.44	43812.20
2934.61	52485.34
2935.78	33793.53
2936.95	58889.34
2938.11	51023.09
2939.28	54807.74
2940.45	48389.41
2941.62	53394.64
2942.78	36296.15
2943.95	51803.37
2945.12	55844.01
2946.28	54828.22
2947.45	57576.59
2948.61	51836.14
2949.78	57341.08
2950.94	58719.36
2952.10	47330.61
2953.27	48602.39
2954.43	52290.79
2955.59	55647.41
2956.76	56116.39
2957.92	56904.86
2959.08	48024.87
2960.24	48145.70
2961.40	58135.69
2962.56	56054.95
2963.72	48809.24
2964.88	48669.98
2966.04	44631.38
2967.20	53703.88
2968.36	47158.58
2969.52	51270.90
2970.67	53433.55
2971.83	50529.53
2972.99	58029.19
2974.14	45520.20
2975.30	46417.21
2976.46	27000.42
2977.61	44262.75
2978.77	48719.13
2979.92	39171.50
2981.08	39202.22
2982.23	37295.56
2983.38	35116.52
2984.54	32960.01
2985.69	31118.89
2986.84	28644.94
2987.99	25515.64
2989.15	24692.36
2990.30	22724.26
2991.45	19480.28
2992.60	19519.19
2993.75	18607.84
2994.90	17389.30
2996.05	16574.21
2997.20	14767.90
2998.35	14368.55
2999.49	13270.84
3000.64	12459.84
3001.79	12099.40
3002.94	11898.70
3004.08	10624.86
3005.23	10401.63
3006.38	10106.73
3007.52	9629.55
3008.67	9305.97
3009.81	8812.41
3010.96	8322.94
3012.10	8193.92
3013.25	8157.06
3014.39	7849.86
3015.53	7350.16
3016.67	7309.20
3017.82	7065.49
3018.96	6915.99
3020.10	6635.42
3021.24	6320.03
3022.38	6205.35
3023.52	6213.54
3024.66	6113.19
3025.80	5918.63
3026.94	5986.21
3028.08	5128.11
3029.22	5527.47
3030.36	5193.65
3031.50	5523.37
3032.63	5060.53
3033.77	5015.48
3034.91	4964.28
3036.04	5191.60
3037.18	4929.46
3038.32	4990.90
3039.45	4663.22
3040.59	4566.97
3041.72	5042.10
3042.86	4708.28
3043.99	4671.42
3045.12	4390.84
3046.26	4501.44
3047.39	4468.67
3048.52	4349.89
3049.65	4329.41
3050.78	4106.18
3051.92	4415.42
3053.05	4274.11
3054.18	4069.31
3055.31	4423.61
3056.44	4075.46
3057.57	4173.76
3058.70	4040.64
3059.82	3733.45
3060.95	3901.38
3062.08	3930.05
3063.21	3200.98
3064.34	3682.25
3065.46	3858.37
3066.59	3645.38
3067.71	3411.92
3068.84	3545.03
3069.97	3776.45
3071.09	3495.88
3072.22	3653.58
3073.34	3614.66
3074.46	3540.94
3075.59	3481.55
3076.71	3110.86
3077.83	3350.48
3078.96	3209.17
3080.08	3200.98
3081.20	3137.49
3082.32	3307.47
3083.44	2922.45
3084.56	3143.63
3085.68	3327.95
3086.80	3211.22
3087.92	2924.50
3089.04	3049.43
3090.16	2973.65
3091.28	3176.40
3092.40	3035.09
3093.51	2637.78
3094.63	2844.63
3095.75	2824.15
3096.87	2834.39
3097.98	2781.14
3099.10	3235.79
3100.21	2402.27
3101.33	2682.84
3102.44	3014.61
3103.56	2740.18
3104.67	2725.85
3105.79	2611.16
3106.90	2781.14
3108.01	2770.90
3109.12	2867.16
3110.24	2727.89
3111.35	2971.60
3112.46	2498.52
3113.57	2951.12
3114.68	2523.10
3115.79	2697.17
3116.90	2990.03
3118.01	2861.01
3119.12	2934.74
3120.23	2938.84
3121.34	2586.58
3122.45	2852.82
3123.56	3131.34
3124.66	2856.92
3125.77	3106.77
3126.88	2959.31
3127.98	3196.88
3129.09	2578.39
3130.20	2926.55
3131.30	2791.38
3132.41	2858.96
3133.51	3233.74
3134.61	2953.17
3135.72	3180.50
3136.82	2918.36
3137.93	3049.43
3139.03	3203.02
3140.13	3237.84
3141.23	3284.94
3142.33	3069.91
3143.44	3110.86
3144.54	3035.09
3145.64	2992.08
3146.74	2854.87
3147.84	3276.75
3148.94	3207.12
3150.04	3330.00
3151.14	3667.91
3152.23	3260.37
3153.33	3483.59
3154.43	3571.66
3155.53	3465.16
3156.63	3420.11
3157.72	3448.78
3158.82	3446.73
3159.91	3321.81
3161.01	3811.27
3162.11	3657.67
3163.20	3665.86
3164.30	3620.81
3165.39	3985.35
3166.48	3557.32
3167.58	3499.98
3168.67	3665.86
3169.76	3784.65
3170.86	3882.95
3171.95	3741.64
3173.04	3723.21
3174.13	3815.37
3175.22	3923.91
3176.31	3975.11
3177.40	3825.61
3178.49	4126.66
3179.58	3887.04
3180.67	4106.18
3181.76	4513.72
3182.85	4415.42
3183.94	4067.27
3185.03	4255.68
3186.11	3399.63
3187.20	4257.73
3188.29	3977.16
3189.37	4220.86
3190.46	4239.30
3191.55	4333.50
3192.63	4464.57
3193.72	4386.75
3194.80	4239.30
3195.89	4296.64
3196.97	4251.58
3198.05	4407.23
3199.14	4358.08
3200.22	4634.55
3201.30	4757.43
3202.38	4673.46
3203.47	4614.07
3204.55	4634.55
3205.63	5220.27
3206.71	4198.34
3207.79	4722.62
3208.87	4880.31
3209.95	4775.86
3211.03	5072.82
3212.11	5078.96
3213.19	4216.77
3214.27	4806.58
3215.34	4745.14
3216.42	5177.26
3217.50	4841.40
3218.58	4964.28
3219.65	4902.84
3220.73	5334.96
3221.80	5355.44
3222.88	5038.00
3223.96	5298.10
3225.03	5642.15
3226.10	5662.63
3227.18	5648.30
3228.25	5259.18
3229.33	5615.53
3230.40	5289.90
3231.47	5461.93
3232.54	5345.20
3233.62	5525.42
3234.69	5377.97
3235.76	5775.27
3236.83	6244.26
3237.90	5705.64
3238.97	5621.67
3240.04	5621.67
3241.11	5664.68
3242.18	5889.96
3243.25	5865.38
3244.32	5173.17
3245.39	6090.66
3246.45	6082.47
3247.52	6059.94
3248.59	5902.25
3249.66	5963.68
3250.72	6082.47
3251.79	5941.16
3252.85	5930.92
3253.92	6277.02
3254.98	5947.30
3256.05	6141.86
3257.11	6135.71
3258.18	6139.81
3259.24	6246.30
3260.30	6102.95
3261.37	5828.52
3262.43	6098.85
3263.49	6064.04
3264.55	5965.73
3265.62	6043.56
3266.68	5955.49
3267.74	6322.08
3268.80	6090.66
3269.86	6000.55
3270.92	6051.75
3271.98	6006.69
3273.04	6440.86
3274.10	5879.72
3275.16	6342.56
3276.21	5900.20
3277.27	5801.90
3278.33	6244.26
3279.39	6191.01
3280.44	5939.11
3281.50	6076.32
3282.56	5820.33
3283.61	5892.01
3284.67	5912.49
3285.72	6188.96
3286.78	5343.15
3287.83	6076.32
3288.88	6051.75
3289.94	6596.51
3290.99	5961.64
3292.04	5670.83
3293.10	5740.46
3294.15	5992.36
3295.20	6238.11
3296.25	6090.66
3297.30	6256.54
3298.36	5871.53
3299.41	6127.52
3300.46	6012.84
3301.51	5660.59
3302.56	5937.06
3303.61	6530.97
3304.65	6377.37
3305.70	6076.32
3306.75	5902.25
3307.80	6180.77
3308.85	6049.70
3309.89	6342.56
3310.94	6379.42
3311.99	5941.16
3313.03	5834.66
3314.08	5947.30
3315.12	5973.92
3316.17	5939.11
3317.21	6281.12
3318.26	6795.16
3319.30	6021.03
3320.35	6193.06
3321.39	6231.97
3322.43	6059.94
3323.48	6268.83
3324.52	6184.87
3325.56	6293.41
3326.60	6088.61
3327.64	5896.10
3328.68	6379.42
3329.73	6231.97
3330.77	6266.78
3331.81	5998.50
3332.85	6102.95
3333.88	5879.72
3334.92	6092.71
3335.96	6195.11
3337.00	6074.28
3338.04	6197.15
3339.08	6186.91
3340.11	6154.15
3341.15	6039.46
3342.19	6000.55
3343.22	6238.11
3344.26	5937.06
3345.30	6072.23
3346.33	6209.44
3347.37	5930.92
3348.40	6137.76
3349.43	5517.23
3350.47	6344.61
3351.50	5898.15
3352.54	5928.87
3353.57	6000.55
3354.60	5838.76
3355.63	6135.71
3356.67	6102.95
3357.70	6041.51
3358.73	5324.72
3359.76	6148.00
3360.79	6072.23
3361.82	5920.68
3362.85	5728.17
3363.88	5902.25
3364.91	5715.88
3365.94	5611.43
3366.97	5861.29
3367.99	5816.23
3369.02	5883.81
3370.05	5482.41
3371.08	5875.62
3372.10	5613.48
3373.13	5750.70
3374.16	5980.07
3375.18	5418.93
3376.21	5818.28
3377.23	5935.01
3378.26	5705.64
3379.28	5603.24
3380.31	5613.48
3381.33	5832.62
3382.35	6023.08
3383.38	5588.91
3384.40	5697.45
3385.42	5556.14
3386.45	5744.55
3387.47	5533.61
3388.49	5494.70
3389.51	5615.53
3390.53	5593.00
3391.55	5394.35
3392.57	5693.35
3393.59	5875.62
3394.61	5443.50
3395.63	5423.02
3396.65	5406.64
3397.67	5167.03
3398.69	5455.79
3399.70	5261.23
3400.72	5269.42
3401.74	5728.17
3402.76	5154.74
3403.77	5560.24
3404.79	5404.59
3405.80	5410.73
3406.82	5218.22
3407.83	4763.58
3408.85	5146.55
3409.86	5351.34
3410.88	5566.38
3411.89	5394.35
3412.91	5296.05
3413.92	5027.76
3414.93	5050.29
3415.94	5107.63
3416.96	5136.31
3417.97	5019.57
3418.98	5255.09
3419.99	6498.20
3421.00	5595.05
3422.01	5187.50
3423.02	4999.09
3424.03	4943.80
3425.04	5169.07
3426.05	5140.40
3427.06	5478.32
3428.07	5265.33
3429.08	5109.68
3430.09	4902.84
3431.09	5484.46
3432.10	5298.10
3433.11	5451.69
3434.12	5228.46
3435.12	5195.70
3436.13	5164.98
3437.13	4982.71
3438.14	4859.83
3439.14	4880.31
3440.15	4677.56
3441.15	4779.96
3442.16	4931.51
3443.16	4849.59
3444.16	4585.40
3445.17	4425.66
3446.17	4503.48
3447.17	4581.31
3448.17	4691.90
3449.18	4732.86
3450.18	4741.05
3451.18	4700.09
3452.18	4947.89
3453.18	4695.99
3454.18	4788.15
3455.18	4757.43
3456.18	4650.94
3457.18	4702.14
3458.18	4636.60
3459.17	4308.93
3460.17	4384.70
3461.17	4243.39
3462.17	4315.07
3463.17	4270.01
3464.16	4347.84
3465.16	4134.85
3466.15	4067.27
3467.15	4132.80
3468.15	4073.41
3469.14	4114.37
3470.14	4304.83
3471.13	4014.02
3472.13	3821.51
3473.12	3833.80
3474.11	4036.55
3475.11	4011.97
3476.10	3811.27
3477.09	4018.11
3478.08	3987.40
3479.08	3643.34
3480.07	3446.73
3481.06	3815.37
3482.05	3588.04
3483.04	3760.07
3484.03	3755.97
3485.02	3637.19
3486.01	3835.85
3487.00	3446.73
3487.99	3317.71
3488.98	3530.70
3489.97	3217.36
3490.95	3442.64
3491.94	3549.13
3492.93	3350.48
3493.92	3532.75
3494.90	3082.19
3495.89	3469.26
3496.88	3041.23
3497.86	3190.74
3498.85	3401.68
3499.83	3286.99
3500.82	3465.16
3501.80	3364.81
3502.79	3237.84
3503.77	3157.97
3504.75	3041.23
3505.74	3282.89
3506.72	3127.25
3507.70	3260.37
3508.68	3217.36
3509.67	3340.24
3510.65	3176.40
3511.63	3319.76
3512.61	3381.20
3513.59	3088.34
3514.57	2506.71
3515.55	2924.50
3516.53	2932.69
3517.51	3137.49
3518.49	3200.98
3519.47	2791.38
3520.45	2445.27
3521.42	2709.46
3522.40	2658.26
3523.38	2609.11
3524.36	2336.73
3525.33	2744.28
3526.31	3071.95
3527.29	2439.13
3528.26	2578.39
3529.24	3127.25
3530.21	2797.53
3531.19	2684.89
3532.16	2346.97
3533.14	2768.85
3534.11	2799.57
3535.08	2424.80
3536.06	2688.98
3537.03	2344.92
3538.00	2912.21
3538.98	2365.40
3539.95	2547.67
3540.92	2533.34
3541.89	2533.34
3542.86	2312.16
3543.83	2420.70
3544.80	2291.68
3545.77	2363.36
3546.74	2187.23
3547.71	2217.95
3548.68	2162.66
3549.65	2195.42
3550.62	2238.43
3551.59	2140.13
3552.56	2443.23
3553.52	2244.57
3554.49	2142.18
3555.46	2015.20
3556.42	2162.66
3557.39	1851.36
3558.36	1966.05
3559.32	1894.37
3560.29	4202.43
3561.25	1923.04
3562.22	1961.95
3563.18	2205.66
3564.15	1759.21
3565.11	1734.63
3566.07	1894.37
3567.04	2109.41
3568.00	1923.04
3568.96	1562.60
3569.92	1918.95
3570.89	1626.09
3571.85	2007.01
3572.81	1877.99
3573.77	1798.12
3574.73	2103.26
3575.69	1599.46
3576.65	1841.12
3577.61	1624.04
3578.57	1804.26
3579.53	1751.01
3580.49	1546.22
3581.45	1597.42
3582.40	1394.67
3583.36	1417.19
3584.32	1806.31
3585.28	1525.74
3586.23	1435.63
3587.19	1675.24
3588.15	1290.22
3589.10	1566.70
3590.06	1617.90
3591.01	1439.72
3591.97	1415.15
3592.92	1515.50
3593.88	1626.09
3594.83	1345.52
3595.78	1458.15
3596.74	1333.23
3597.69	1468.39
3598.64	1466.35
3599.60	1341.42
3600.55	1294.32
3601.50	1306.60
3602.45	1222.64
3603.40	1472.49
3604.35	1347.56
3605.31	1533.93
3606.26	1325.04
3607.21	1196.01
3608.16	1474.54
3609.10	1185.77
3610.05	1236.97
3611.00	1269.74
3611.95	1361.90
3612.90	1298.41
3613.85	1103.86
3614.79	1179.63
3615.74	1101.81
3616.69	1157.10
3617.63	1161.20
3618.58	1232.88
3619.53	1341.42
3620.47	1034.22
3621.42	974.83
3622.36	1148.91
3623.31	1007.60
3624.25	1038.32
3625.20	1288.17
3626.14	1243.12
3627.08	792.56
3628.03	862.19
3628.97	1066.99
3629.91	1062.90
3630.85	1232.88
3631.80	1173.49
3632.74	1282.03
3633.68	933.87
3634.62	1019.89
3635.56	1087.47
3636.50	1110.00
3637.44	845.81
3638.38	1175.53
3639.32	964.59
3640.26	811.00
3641.20	997.36
3642.14	972.79
3643.08	917.49
3644.01	1134.57
3644.95	899.06
3645.89	1052.66
3646.83	1089.52
3647.76	1046.51
3648.70	1009.65
3649.63	595.96
3650.57	819.19
3651.51	1030.13
3652.44	727.03
3653.38	796.66
3654.31	972.79
3655.24	1144.81
3656.18	888.82
3657.11	1071.09
3658.05	817.14
3658.98	677.88
3659.91	905.20
3660.84	921.59
3661.78	671.73
3662.71	518.14
3663.64	940.02
3664.57	761.84
3665.50	747.51
3666.43	681.97
3667.36	540.66
3668.29	352.25
3669.22	747.51
3670.15	677.88
3671.08	774.13
3672.01	864.24
3672.94	796.66
3673.86	722.93
3674.79	917.49
3675.72	491.51
3676.65	538.62
3677.57	827.38
3678.50	839.67
3679.43	614.39
3680.35	767.99
3681.28	806.90
3682.20	710.65
3683.13	911.35
3684.05	571.38
3684.98	792.56
3685.90	903.15
3686.83	661.49
3687.75	952.31
3688.67	774.13
3689.60	757.75
3690.52	786.42
3691.44	598.01
3692.36	743.41
3693.28	620.53
3694.21	1023.98
3695.13	583.67
3696.05	653.30
3696.97	618.49
3697.89	450.55
3698.81	620.53
3699.73	630.77
3700.65	309.24
3701.57	780.28
3702.48	604.15
3703.40	430.07
3704.32	546.81
3705.24	720.89
3706.16	600.05
3707.07	493.56
3707.99	577.53
3708.91	610.29
3709.82	466.94
3710.74	333.82
3711.66	288.76
3712.57	397.31
3713.49	1015.79
3714.40	452.60
3715.31	352.25
3716.23	735.22
3717.14	634.87
3718.06	331.77
3718.97	550.90
3719.88	331.77
3720.80	720.88
3721.71	0.00
3722.62	417.79
3723.53	0.00
3724.44	567.29
3725.35	0.00
3726.26	475.13
3727.18	9123.70
3728.09	313.34
3729.00	296.96
3729.91	360.44
3730.81	251.90
3731.72	378.87
3732.63	337.91
3733.54	350.20
3734.45	389.11
3735.36	538.62
3736.26	671.73
3737.17	342.01
3738.08	372.73
3738.99	475.13
3739.89	421.88
3740.80	364.54
3741.70	339.96
3742.61	442.36
3743.51	657.40
3744.42	620.53
3745.32	348.15
3746.23	385.02
3747.13	391.16
3748.04	559.10
3748.94	417.79
3749.84	221.18
3750.74	163.84
3751.65	466.94
3752.55	204.80
3753.45	591.86
3754.35	245.76
3755.25	344.06
3756.16	454.65
3757.06	460.79
3757.96	446.46
3758.86	415.74
3759.76	231.42
3760.66	374.78
3761.55	573.43
3762.45	485.37
3763.35	684.02
3764.25	731.12
3765.15	487.42
3766.05	698.36
3766.94	589.82
3767.84	532.47
3768.74	407.55
3769.63	501.75
3770.53	356.35
3771.43	407.55
3772.32	546.81
3773.22	622.58
3774.11	284.67
3775.01	538.62
3775.90	417.79
3776.80	305.15
3777.69	532.47
3778.58	509.94
3779.48	561.14
3780.37	327.67
3781.26	851.96
3782.16	378.87
3783.05	1198.06
3783.94	456.70
3784.83	278.52
3785.72	559.10
3786.61	337.91
3787.50	638.97
3788.39	735.22
3789.28	544.76
3790.17	268.28
3791.06	595.96
3791.95	356.35
3792.84	436.22
3793.73	364.54
3794.62	165.89
3795.51	696.31
3796.39	612.34
3797.28	516.09
3798.17	610.29
3799.06	417.79
3799.94	368.63
3800.83	550.90
3801.71	534.52
3802.60	602.10
3803.48	677.88
3804.37	591.86
3805.25	382.97
3806.14	391.16
3807.02	159.74
3807.91	460.79
3808.79	466.94
3809.67	677.88
3810.56	708.60
3811.44	264.19
3812.32	247.80
3813.20	212.99
3814.09	458.75
3814.97	272.38
3815.85	675.83
3816.73	458.75
3817.61	282.62
3818.49	225.28
3819.37	315.39
3820.25	454.65
3821.13	497.66
3822.01	344.06
3822.89	380.92
3823.77	268.28
3824.65	399.35
3825.52	403.45
3826.40	215.04
3827.28	602.10
3828.16	376.83
3829.03	237.56
3829.91	237.56
3830.79	382.97
3831.66	477.18
3832.54	387.07
3833.41	718.84
3834.29	210.94
3835.16	577.53
3836.04	432.12
3836.91	65.53
3837.79	706.55
3838.66	380.92
3839.53	499.70
3840.41	417.79
3841.28	464.89
3842.15	186.37
3843.02	393.21
3843.90	479.22
3844.77	405.50
3845.64	307.20
3846.51	270.33
3847.38	557.05
3848.25	391.16
3849.12	163.84
3849.99	22.53
3850.86	397.31
3851.73	190.46
3852.60	112.64
3853.47	434.17
3854.34	253.95
3855.21	321.53
3856.07	215.04
3856.94	221.18
3857.81	430.07
3858.68	262.14
3859.54	339.96
3860.41	432.12
3861.28	288.76
3862.14	511.99
3863.01	372.73
3863.87	339.96
3864.74	-30.72
3865.60	423.93
3866.47	495.61
3867.33	446.46
3868.19	503.80
3869.06	270.33
3869.92	479.22
3870.78	436.22
3871.65	210.94
3872.51	604.15
3873.37	1970.15
3874.23	292.86
3875.10	423.93
3875.96	124.93
3876.82	552.95
3877.68	673.78
3878.54	301.05
3879.40	178.17
3880.26	200.70
3881.12	180.22
3881.98	219.13
3882.84	249.85
3883.70	221.18
3884.55	511.99
3885.41	180.22
3886.27	425.98
3887.13	491.51
3887.99	22.53
3888.84	395.26
3889.70	337.91
3890.56	366.59
3891.41	413.69
3892.27	444.41
3893.12	292.86
3893.98	546.81
3894.83	444.41
3895.69	258.04
3896.54	339.96
3897.40	323.58
3898.25	217.08
3899.11	354.30
3899.96	141.31
3900.81	292.86
3901.66	456.70
3902.52	94.21
3903.37	430.07
3904.22	610.29
3905.07	516.09
3905.92	206.84
3906.78	397.31
3907.63	198.65
